,num_features,task,trial,w0,w1,w2,w3,xf0,xf1,xf2,xf3,xj0,xj1,xj2,xj3,yf,yj,slow,J_pressed,decision_time,participant_id
0,2,1,1,-0.4423050284385681,-1.6143651008605957,0.0,0.0,0.1515385508537292,-0.3259013295173645,0.0,0.0,0.8505988121032715,-1.3384442329406738,0.0,0.0,0.4590974748134613,1.7845134735107422,1,1,2555,0
1,2,1,2,-0.4423050284385681,-1.6143651008605957,0.0,0.0,-1.5007226467132568,0.5592362284660339,0.0,0.0,0.9470256567001344,0.7579023838043213,0.0,0.0,-0.2390342801809311,-1.642405390739441,1,1,1203,0
2,2,1,3,-0.4423050284385681,-1.6143651008605957,0.0,0.0,0.3986906707286834,0.523984968662262,0.0,0.0,1.608153223991394,-0.9958965182304382,0.0,0.0,-1.0222458839416504,0.8964463472366333,1,1,813,0
3,2,1,4,-0.4423050284385681,-1.6143651008605957,0.0,0.0,0.7156947255134583,-0.9257891178131104,0.0,0.0,-0.5521231293678284,-2.3574039936065674,0.0,0.0,1.178006291389465,4.049917697906494,1,1,917,0
4,2,1,5,-0.4423050284385681,-1.6143651008605957,0.0,0.0,2.2942094802856445,1.4549990892410278,0.0,0.0,1.0683468580245972,1.3873255252838137,0.0,0.0,-3.363640069961548,-2.7121851444244385,1,1,1278,0
5,2,1,6,-0.4423050284385681,-1.6143651008605957,0.0,0.0,0.4134880602359772,-2.409115791320801,0.0,0.0,0.989489495754242,-1.7790369987487793,0.0,0.0,3.7063045501708975,2.434359073638916,1,0,1819,0
6,2,1,7,-0.4423050284385681,-1.6143651008605957,0.0,0.0,-1.0373986959457395,1.2216928005218506,0.0,0.0,1.227533936500549,0.7370488047599792,0.0,0.0,-1.513411521911621,-1.7328102588653564,1,1,872,0
7,2,1,8,-0.4423050284385681,-1.6143651008605957,0.0,0.0,-0.649642288684845,-0.3766881823539734,0.0,0.0,3.076695680618286,-0.078092336654663,0.0,0.0,0.8954523205757141,-1.2347683906555176,1,0,1340,0
8,2,1,9,-0.4423050284385681,-1.6143651008605957,0.0,0.0,-3.0826120376586914,-0.2056761234998703,0.0,0.0,-1.0408833026885986,1.9451960325241089,0.0,0.0,1.6954911947250366,-2.679868698120117,1,0,1195,0
9,2,1,10,-0.4423050284385681,-1.6143651008605957,0.0,0.0,-0.7348945140838623,-0.0787999257445335,0.0,0.0,-1.4121476411819458,0.832080602645874,0.0,0.0,0.4522594213485718,-0.7186818718910217,1,0,873,0
10,2,2,1,-0.3649609684944153,0.5553719997406006,0.0,0.0,-2.130459785461426,-1.3966147899627686,0.0,0.0,0.4179616570472717,1.1479666233062744,0.0,0.0,0.0018939148867502,0.4850088357925415,1,0,3024,0
11,2,2,2,-0.3649609684944153,0.5553719997406006,0.0,0.0,-0.1995870769023895,-0.1164897233247757,0.0,0.0,-1.188164234161377,-1.9599595069885252,0.0,0.0,0.0081463642418384,-0.6548730731010437,1,0,2435,0
12,2,2,3,-0.3649609684944153,0.5553719997406006,0.0,0.0,1.6394702196121216,0.2486949414014816,0.0,0.0,-1.539107322692871,0.8057042360305786,0.0,0.0,-0.460224449634552,1.009179711341858,1,0,2366,0
13,2,2,4,-0.3649609684944153,0.5553719997406006,0.0,0.0,0.5562567710876465,-1.0343002080917358,0.0,0.0,0.6465920805931091,-1.5236213207244873,0.0,0.0,-0.7774333953857422,-1.0821574926376345,1,0,1521,0
14,2,2,5,-0.3649609684944153,0.5553719997406006,0.0,0.0,2.344217300415039,0.339469850063324,0.0,0.0,-0.5364990234375,2.2179558277130127,0.0,0.0,-0.667015790939331,1.4275918006896973,1,1,872,0
15,2,2,6,-0.3649609684944153,0.5553719997406006,0.0,0.0,-0.8356540203094482,-0.6511437296867371,0.0,0.0,2.069234848022461,-1.4109922647476196,0.0,0.0,-0.0566458813846111,-1.5388154983520508,1,0,1243,0
16,2,2,7,-0.3649609684944153,0.5553719997406006,0.0,0.0,-1.269425868988037,-2.360891819000244,0.0,0.0,-0.2703819870948791,0.0149150760844349,0.0,0.0,-0.8478823304176331,0.1069622859358787,1,1,1100,0
17,2,2,8,-0.3649609684944153,0.5553719997406006,0.0,0.0,-0.3372445404529571,1.2955033779144287,0.0,0.0,-0.1462125033140182,0.264956384897232,0.0,0.0,0.8425673842430115,0.2005112171173095,1,0,946,0
18,2,2,9,-0.3649609684944153,0.5553719997406006,0.0,0.0,-0.880549430847168,1.16090989112854,0.0,0.0,0.1144104450941085,0.6020230054855347,0.0,0.0,0.9661029577255248,0.2925913631916046,1,0,968,0
19,2,2,10,-0.3649609684944153,0.5553719997406006,0.0,0.0,-1.895024538040161,1.6779776811599731,0.0,0.0,-0.3209955096244812,-0.6284661293029785,0.0,0.0,1.623511791229248,-0.2318816483020782,1,0,750,0
20,4,3,1,0.5382360816001892,0.2012300342321396,0.524537980556488,-0.3638601303100586,-0.4116809368133545,1.6278810501098633,1.0782690048217771,-1.1284563541412354,-1.2590041160583496,0.3110235631465912,0.5161713361740112,0.4604343771934509,1.0821902751922607,-0.5118364095687866,1,0,4269,0
21,4,3,2,0.5382360816001892,0.2012300342321396,0.524537980556488,-0.3638601303100586,-0.3676470816135406,-1.4261332750320437,1.811227798461914,-0.8967898488044739,1.157981514930725,-0.1937517374753952,-1.436428785324097,-1.1943933963775637,0.791502058506012,0.2654093503952026,1,1,1052,0
22,4,3,3,0.5382360816001892,0.2012300342321396,0.524537980556488,-0.3638601303100586,-0.6601571440696716,-1.8944562673568728,-1.021039366722107,0.778527557849884,-2.1583411693573,1.3568624258041382,0.7722765207290649,-1.4555752277374268,-1.5553908348083496,0.0460584759712219,1,1,1744,0
23,4,3,4,0.5382360816001892,0.2012300342321396,0.524537980556488,-0.3638601303100586,1.2847888469696045,0.7409898042678833,-0.7478482723236084,-1.1053541898727417,-0.150894895195961,0.1972936391830444,-0.350966602563858,-0.5134544372558594,0.8505486249923706,-0.038785383105278,1,0,1970,0
24,4,3,5,0.5382360816001892,0.2012300342321396,0.524537980556488,-0.3638601303100586,-0.2968420684337616,0.1642695367336273,0.2359671741724014,0.1637394428253173,-0.9930969476699828,0.6887252926826477,-0.9282094836235046,0.0577875711023807,-0.0625196620821952,-0.9038361310958862,1,0,2098,0
25,4,3,6,0.5382360816001892,0.2012300342321396,0.524537980556488,-0.3638601303100586,0.9130605459213256,-0.8434579968452454,1.371519923210144,-1.239286184310913,-0.8195464611053467,-1.4852280616760254,1.0473356246948242,0.2609850764274597,1.4920542240142822,-0.2855767011642456,1,0,1439,0
26,4,3,7,0.5382360816001892,0.2012300342321396,0.524537980556488,-0.3638601303100586,-0.2809110581874847,-0.801019012928009,-1.666398048400879,0.3636996448040008,1.711497187614441,0.4816137850284576,-1.7846932411193848,0.7470860481262207,-1.3188104629516602,-0.1898695826530456,1,0,4031,0
27,4,3,8,0.5382360816001892,0.2012300342321396,0.524537980556488,-0.3638601303100586,-0.3923576772212982,-1.4426923990249634,1.3561145067214966,-0.8584536910057068,0.2026883661746978,-0.8181544542312622,1.0968843698501587,2.5603511333465576,0.5221965312957764,-0.4117952585220337,1,0,1203,0
28,4,3,9,0.5382360816001892,0.2012300342321396,0.524537980556488,-0.3638601303100586,-0.5520486235618591,-0.1998011618852615,1.579060196876526,0.5417502522468567,1.358957052230835,0.2244073152542114,0.4864527583122253,0.0711155161261558,0.2938172221183777,1.005884051322937,1,0,2210,0
29,4,3,10,0.5382360816001892,0.2012300342321396,0.524537980556488,-0.3638601303100586,0.4013674855232239,0.0668686777353286,0.1515332609415054,0.3855536878108978,0.2975700497627258,-0.703628659248352,-0.693852961063385,1.534105896949768,0.1686837971210479,-0.9035804271697998,1,0,2668,0
30,3,4,1,0.7402524948120117,0.1727989464998245,0.0661484375596046,0.0,0.7137766480445862,-0.1242168694734573,0.9527826905250548,0.0,-0.0851638689637184,0.6251764297485352,0.7312514781951904,0.0,0.5699355602264404,0.0933582037687301,1,0,3937,0
31,3,4,2,0.7402524948120117,0.1727989464998245,0.0661484375596046,0.0,-1.5720820426940918,-0.8044365644454956,1.4757167100906372,0.0,0.3650506436824798,1.4701963663101196,0.9040114283561708,0.0,-1.2051271200180054,0.584077000617981,1,1,1256,0
32,3,4,3,0.7402524948120117,0.1727989464998245,0.0661484375596046,0.0,-0.151948481798172,-0.0063268956728279,-0.5894336700439453,0.0,-0.652728796005249,1.2165557146072388,-1.7134418487548828,0.0,-0.1525636464357376,-0.3863061070442199,1,0,1483,0
33,3,4,4,0.7402524948120117,0.1727989464998245,0.0661484375596046,0.0,0.0191995166242122,0.6507275104522705,-0.7365729212760925,0.0,0.0655258446931839,-1.819169282913208,-0.7381619811058044,0.0,0.0779343694448471,-0.3146731257438659,1,1,1753,0
34,3,4,5,0.7402524948120117,0.1727989464998245,0.0661484375596046,0.0,1.465217351913452,1.0664042234420776,0.0633016005158424,0.0,0.4412897527217865,1.1378854513168335,0.0903650820255279,0.0,1.2730916738510132,0.529268741607666,1,0,1414,0
35,3,4,6,0.7402524948120117,0.1727989464998245,0.0661484375596046,0.0,0.2135906219482422,0.0591622851788997,-0.122633583843708,0.0,-1.825969219207764,0.0694193691015243,0.2164057791233062,0.0,0.1602221578359604,-1.32536780834198,1,0,1394,0
36,3,4,7,0.7402524948120117,0.1727989464998245,0.0661484375596046,0.0,0.7947147488594055,-0.8183094263076782,-1.547527313232422,0.0,0.0711126253008842,0.804466724395752,0.8653586506843567,0.0,0.3445200324058532,0.2488944232463836,1,1,2466,0
37,3,4,8,0.7402524948120117,0.1727989464998245,0.0661484375596046,0.0,1.0737996101379397,-0.7628583312034607,0.9697906374931335,0.0,0.4288733601570129,1.477677345275879,1.6530948877334597,0.0,0.7272118926048279,0.6821653246879578,1,1,1990,0
38,3,4,9,0.7402524948120117,0.1727989464998245,0.0661484375596046,0.0,0.3608178794384002,1.3839080333709717,-0.1758784651756286,0.0,2.041199207305908,-0.6376817226409912,-1.0428298711776731,0.0,0.4946001172065735,1.3318305015563965,1,1,4217,0
39,3,4,10,0.7402524948120117,0.1727989464998245,0.0661484375596046,0.0,-0.3889751136302948,-0.5167355537414551,1.1033507585525513,0.0,-0.9702308177947998,0.2072372436523437,-1.6168464422225952,0.0,-0.3042462170124054,-0.7893572449684143,1,0,2783,0
40,3,5,1,-0.86924809217453,0.5384315848350525,0.3962261378765106,0.0,0.6496942043304443,2.029736280441284,1.6488547325134275,0.0,-0.2663522958755493,-0.4083980023860931,-1.6088731288909912,0.0,1.181447982788086,-0.625845730304718,1,0,3428,0
41,3,5,2,-0.86924809217453,0.5384315848350525,0.3962261378765106,0.0,-0.628191351890564,0.3047762215137481,0.2272001355886459,0.0,-0.5920427441596985,-1.3138413429260254,0.3984215557575226,0.0,0.8001778721809387,-0.0349165946245193,1,0,2499,0
42,3,5,3,-0.86924809217453,0.5384315848350525,0.3962261378765106,0.0,-0.3493657410144806,0.6417514085769653,1.0047954320907593,0.0,-2.664875030517578,0.1867654919624328,-0.957926630973816,0.0,1.0473510026931765,2.037442207336426,1,0,945,0
43,3,5,4,-0.86924809217453,0.5384315848350525,0.3962261378765106,0.0,-1.160927176475525,0.1899424195289611,0.4383655786514282,0.0,-1.649996280670166,-0.0922141820192337,2.865664005279541,0.0,1.285096526145935,2.5200560092926025,1,1,1191,0
44,3,5,5,-0.86924809217453,0.5384315848350525,0.3962261378765106,0.0,-1.3889631032943726,0.1900871694087982,-0.5799387097358704,0.0,0.0812789648771286,0.6865586042404175,-0.6759560108184814,0.0,1.0799155235290527,0.0311818122863769,1,1,2865,0
45,3,5,6,-0.86924809217453,0.5384315848350525,0.3962261378765106,0.0,-0.8332892656326294,-0.501308262348175,-1.794772386550903,0.0,-0.1316316425800323,-2.3259527683258057,0.7308188080787659,0.0,-0.2567208111286163,-0.8483763933181763,1,1,1394,0
46,3,5,7,-0.86924809217453,0.5384315848350525,0.3962261378765106,0.0,-1.757215976715088,-0.1853143125772476,1.6987732648849487,0.0,-1.6013103723526,-0.1458172053098678,0.2787807285785675,0.0,2.100775957107544,1.4238835573196411,1,0,1765,0
47,3,5,8,-0.86924809217453,0.5384315848350525,0.3962261378765106,0.0,-0.8771969676017761,-1.6777997016906738,1.3860013484954834,0.0,-0.241307184100151,0.4980681240558624,-0.2284536808729171,0.0,0.4082913994789123,0.3874121010303497,1,1,2250,0
48,3,5,9,-0.86924809217453,0.5384315848350525,0.3962261378765106,0.0,-0.6762537360191345,-0.7313788533210754,0.8530821800231934,0.0,-0.9684572219848632,1.0763376951217651,1.2604990005493164,0.0,0.532048225402832,1.9208064079284668,1,1,2310,0
49,3,5,10,-0.86924809217453,0.5384315848350525,0.3962261378765106,0.0,1.129177451133728,-0.1927953958511352,0.6542409062385559,0.0,-0.3948635458946228,0.159131646156311,1.5714467763900757,0.0,-0.8261151313781738,1.0515642166137695,1,1,2054,0
50,2,6,1,0.0234336145222187,0.1101229190826416,0.0,0.0,-0.2363771647214889,-0.3015249073505401,0.0,0.0,0.8676936626434326,0.5278730392456055,0.0,0.0,-0.0387439727783203,0.0784641206264495,1,1,2109,0
51,2,6,2,0.0234336145222187,0.1101229190826416,0.0,0.0,1.010908603668213,-0.1006321609020233,0.0,0.0,0.5948446989059448,-0.5195410251617432,0.0,0.0,0.0126073351129889,-0.0432740114629268,1,0,2374,0
52,2,6,3,0.0234336145222187,0.1101229190826416,0.0,0.0,-0.5108681321144104,-1.1083494424819946,0.0,0.0,0.182221844792366,-0.4013596177101135,0.0,0.0,-0.1340261697769165,-0.039928775280714,1,1,2014,0
53,2,6,4,0.0234336145222187,0.1101229190826416,0.0,0.0,0.6834376454353333,0.6093136668205261,0.0,0.0,0.6719708442687988,-2.4461898803710938,0.0,0.0,0.0831148102879524,-0.2536348700523376,1,0,1477,0
54,2,6,5,0.0234336145222187,0.1101229190826416,0.0,0.0,-0.7399568557739258,-0.3004839420318603,0.0,0.0,0.1493264585733413,0.5586772561073303,0.0,0.0,-0.0504300333559513,0.0650224313139915,1,1,1666,0
55,2,6,6,0.0234336145222187,0.1101229190826416,0.0,0.0,1.1616363525390625,-0.8902487754821777,0.0,0.0,-1.0094913244247437,2.0611889362335205,0.0,0.0,-0.0708154514431953,0.2033281177282333,1,1,1648,0
56,2,6,7,0.0234336145222187,0.1101229190826416,0.0,0.0,0.951744258403778,0.9751163125038148,0.0,0.0,1.4312822818756104,-0.0842938050627708,0.0,0.0,0.1296854615211486,0.0242574382573366,1,0,2041,0
57,2,6,8,0.0234336145222187,0.1101229190826416,0.0,0.0,-0.8206785321235657,0.5028786063194275,0.0,0.0,1.4999504089355469,-0.0716628357768058,0.0,0.0,0.0361469946801662,0.0272575411945581,1,1,2109,0
58,2,6,9,0.0234336145222187,0.1101229190826416,0.0,0.0,-0.9945359230041504,1.7236038446426392,0.0,0.0,0.0352942310273647,-0.3312656879425049,0.0,0.0,0.1665027141571045,-0.0356528759002685,1,0,1346,0
59,2,6,10,0.0234336145222187,0.1101229190826416,0.0,0.0,0.4932020604610443,-0.2709510922431946,0.0,0.0,-1.249821662902832,0.6726365685462952,0.0,0.0,-0.018280416727066,0.0447848662734031,1,1,1182,0
60,4,7,1,-0.0772412940859794,0.5622168779373169,0.3273376226425171,-0.5798073410987854,0.2950442731380462,2.041632413864136,2.0044057369232178,-0.8457905054092407,-0.5938129425048828,-1.2659602165222168,0.2002980411052703,-1.2680357694625854,2.2715635299682617,0.1349041759967804,1,0,2741,0
61,4,7,2,-0.0772412940859794,0.5622168779373169,0.3273376226425171,-0.5798073410987854,-0.761994481086731,0.5977775454521179,-0.3945326805114746,0.4094262719154358,-0.9006611108779907,1.3202149868011477,-0.4692632555961609,-1.5651564598083496,0.0284043103456497,1.5656970739364624,1,1,1089,0
62,4,7,3,-0.0772412940859794,0.5622168779373169,0.3273376226425171,-0.5798073410987854,-0.7147951126098633,0.0677077025175094,-1.3560078144073486,-0.8703207969665527,-0.5974916219711304,-0.2470009177923202,-2.2140567302703857,-0.6924639940261841,0.1540241539478302,-0.4159654378890991,1,0,772,0
63,4,7,4,-0.0772412940859794,0.5622168779373169,0.3273376226425171,-0.5798073410987854,0.6125035881996155,0.0392092689871788,0.1519297212362289,0.6625742316246033,0.6339069604873657,-1.6473751068115234,-1.4620444774627686,-0.4239308834075928,-0.359699547290802,-1.2079298496246338,1,0,1076,0
64,4,7,5,-0.0772412940859794,0.5622168779373169,0.3273376226425171,-0.5798073410987854,-0.7939367890357971,1.3929177522659302,-0.1229291856288909,0.3282872140407562,-0.1106129214167594,1.2553369998931885,0.0474305897951126,-0.0153543790802359,0.6138639450073242,0.7387439608573914,1,0,843,0
65,4,7,6,-0.0772412940859794,0.5622168779373169,0.3273376226425171,-0.5798073410987854,1.6042284965515137,-0.3068439066410064,0.1113810688257217,-0.59523606300354,-0.6632810831069946,-0.0321667790412902,-0.3212802112102508,-0.3014203011989593,0.0851559415459632,0.1027465984225273,1,1,1549,0
66,4,7,7,-0.0772412940859794,0.5622168779373169,0.3273376226425171,-0.5798073410987854,1.1362857818603516,-0.751954972743988,-0.5560539960861206,-0.9038095474243164,-0.7111025452613831,1.568560004234314,0.0045321602374315,1.608517289161682,-0.1685119271278381,0.0056508053094148,1,1,736,0
67,4,7,8,-0.0772412940859794,0.5622168779373169,0.3273376226425171,-0.5798073410987854,0.1930840015411377,-0.0279350485652685,0.4202275276184082,-2.277456521987915,-0.0223266277462244,0.2931416630744934,0.2369460314512252,-0.9600703120231628,1.4274227619171145,0.8007508516311646,1,1,848,0
68,4,7,9,-0.0772412940859794,0.5622168779373169,0.3273376226425171,-0.5798073410987854,-0.6054218411445618,0.4998329579830169,-1.106201171875,-1.6930153369903564,0.1691436469554901,0.7510113716125488,-0.1085165664553642,-0.0532828010618686,0.9472995400428772,0.4045386016368866,1,1,1083,0
69,4,7,10,-0.0772412940859794,0.5622168779373169,0.3273376226425171,-0.5798073410987854,0.0532476082444191,-0.0319004766643047,1.368733525276184,1.5885179042816162,0.0392241515219211,-0.7855777144432068,-0.4586227834224701,0.4955632090568542,-0.4950442314147949,-0.8821504712104797,1,0,1076,0
70,3,8,1,0.5310362577438354,0.2558539807796478,0.0332727208733558,0.0,-1.2217825651168823,0.1327275037765503,-0.575746476650238,0.0,0.4509404301643371,0.2979872822761535,0.9957116842269896,0.0,-0.6340086460113525,0.3488369882106781,1,0,2495,0
71,3,8,2,0.5310362577438354,0.2558539807796478,0.0332727208733558,0.0,0.2461866289377212,-0.5429138541221619,0.0645424798130989,0.0,0.1708468943834304,-1.3144410848617554,-1.0912387371063232,0.0,-0.0060251401737332,-0.2818875610828399,1,0,2259,0
72,3,8,3,0.5310362577438354,0.2558539807796478,0.0332727208733558,0.0,-0.0308539979159832,-0.8159372210502625,-0.6369225382804871,0.0,-1.292119383811951,0.0218120031058788,-1.7445076704025269,0.0,-0.2463375329971313,-0.7386260628700256,1,0,2077,0
73,3,8,4,0.5310362577438354,0.2558539807796478,0.0332727208733558,0.0,0.0076858676038682,0.4710377156734466,-0.2742229700088501,0.0,-0.0746895372867584,0.786799967288971,-0.2006314247846603,0.0,0.1154742017388343,0.1549675017595291,1,0,1820,0
74,3,8,5,0.5310362577438354,0.2558539807796478,0.0332727208733558,0.0,0.055420022457838,-0.0717979595065116,-0.1833183318376541,0.0,1.6865010261535645,0.8138236999511719,-0.3703405857086181,0.0,0.0049607474356889,1.0914909839630127,1,1,822,0
75,3,8,6,0.5310362577438354,0.2558539807796478,0.0332727208733558,0.0,-1.2986445426940918,1.467756986618042,-0.1733200550079345,0.0,0.6223329305648804,-0.3464260995388031,0.3082654774188995,0.0,-0.3198627233505249,0.2521036863327026,1,1,1079,0
76,3,8,7,0.5310362577438354,0.2558539807796478,0.0332727208733558,0.0,0.8941056132316589,1.0410525798797607,-0.2561870515346527,0.0,-0.3345870673656463,-0.2130353450775146,-0.0067314147017896,0.0,0.7326358556747437,-0.2324077934026718,1,0,838,0
77,3,8,8,0.5310362577438354,0.2558539807796478,0.0332727208733558,0.0,-0.625738263130188,-0.3986456096172333,0.2556891739368438,0.0,0.3602314591407776,0.3619371652603149,-1.1530762910842896,0.0,-0.4257773160934448,0.2455330491065979,1,1,882,0
78,3,8,9,0.5310362577438354,0.2558539807796478,0.0332727208733558,0.0,-0.7077101469039917,-0.0094343973323702,0.4320543110370636,0.0,0.1208261996507644,1.9863276481628416,0.2191723734140396,0.0,-0.3638579547405243,0.5796653628349304,1,1,899,0
79,3,8,10,0.5310362577438354,0.2558539807796478,0.0332727208733558,0.0,-0.1032417565584182,-0.358482152223587,0.0584409721195697,0.0,2.532100200653076,0.4513129293918609,0.2955445945262909,0.0,-0.1445997059345245,1.4699407815933228,1,1,799,0
80,2,9,1,0.0835666805505752,0.4584214985370636,0.0,0.0,-1.2460061311721802,-0.838692843914032,0.0,0.0,0.4601208865642547,-0.3974462151527405,0.0,0.0,-0.488599419593811,-0.1437471210956573,1,0,2143,0
81,2,9,2,0.0835666805505752,0.4584214985370636,0.0,0.0,0.5427458882331848,1.9835875034332275,0.0,0.0,0.4148232638835907,-0.5724807381629944,0.0,0.0,0.9546746015548706,-0.2277720719575882,1,0,2260,0
82,2,9,3,0.0835666805505752,0.4584214985370636,0.0,0.0,0.4044707119464874,-1.45501971244812,0.0,0.0,0.2145523577928543,-0.8354883790016174,0.0,0.0,-0.6332120299339294,-0.3650763928890228,1,1,2225,0
83,2,9,4,0.0835666805505752,0.4584214985370636,0.0,0.0,0.608331561088562,0.5051953196525574,0.0,0.0,-0.2461442947387695,-0.8227980136871338,0.0,0.0,0.2824286520481109,-0.3977577686309814,1,0,1755,0
84,2,9,5,0.0835666805505752,0.4584214985370636,0.0,0.0,-1.726215362548828,-0.2415396571159362,0.0,0.0,-0.8791041970252991,0.0106727303937077,0.0,0.0,-0.2549810707569122,-0.0685712099075317,1,1,1779,0
85,2,9,6,0.0835666805505752,0.4584214985370636,0.0,0.0,-0.6212668418884277,0.3878387212753296,0.0,0.0,1.1235295534133911,-0.3798898756504059,0.0,0.0,0.1258763968944549,-0.080260045826435,1,1,1753,0
86,2,9,7,0.0835666805505752,0.4584214985370636,0.0,0.0,0.674751877784729,-1.9417757987976076,0.0,0.0,-1.1037362813949585,1.0944840908050537,0.0,0.0,-0.8337649703025818,0.4094994664192199,1,1,1380,0
87,2,9,8,0.0835666805505752,0.4584214985370636,0.0,0.0,2.195204734802246,-0.5973788499832153,0.0,0.0,0.386005699634552,0.0784916877746582,0.0,0.0,-0.0904053300619125,0.0682394877076149,1,0,695,0
88,2,9,9,0.0835666805505752,0.4584214985370636,0.0,0.0,-2.116684913635254,-0.0591587051749229,0.0,0.0,-0.4219545423984527,-0.6524254679679871,0.0,0.0,-0.2040039598941803,-0.3343471884727478,1,0,938,0
89,2,9,10,0.0835666805505752,0.4584214985370636,0.0,0.0,-0.9156266450881958,0.6936280727386475,0.0,0.0,0.9125535488128662,1.206215739250183,0.0,0.0,0.2414581477642059,0.6292142868041992,1,1,781,0
90,3,10,1,-0.1106565669178962,0.9112755060195924,1.8475010395050049,0.0,0.2683914005756378,-0.1717648059129715,-0.8095249533653259,0.0,-1.1024389266967771,0.3635861873626709,1.0777190923690796,0.0,-1.6818225383758545,2.444406509399414,1,0,2992,0
91,3,10,2,-0.1106565669178962,0.9112755060195924,1.8475010395050049,0.0,-0.8903020024299622,-2.3514151573181152,-0.6964927315711975,0.0,-1.8405367136001587,-2.324279546737671,-0.90960431098938,0.0,-3.331040382385254,-3.594886302947998,1,0,1874,0
92,3,10,3,-0.1106565669178962,0.9112755060195924,1.8475010395050049,0.0,1.1262547969818115,-2.2813217639923096,0.9409594535827636,0.0,-0.0452384762465953,0.0742859095335006,-1.6643675565719604,0.0,-0.4651165008544922,-3.002219915390014,1,0,849,0
93,3,10,4,-0.1106565669178962,0.9112755060195924,1.8475010395050049,0.0,1.305972933769226,1.0385675430297852,-0.7380496263504028,0.0,-0.2697493433952331,-0.527425229549408,3.003328800201416,0.0,-0.561640739440918,5.097872734069824,1,1,620,0
94,3,10,5,-0.1106565669178962,0.9112755060195924,1.8475010395050049,0.0,-0.082874983549118,-0.2711036503314972,0.1841008067131042,0.0,1.6857759952545166,0.9614274501800536,0.3788276612758636,0.0,0.1022469699382782,1.3894675970077517,1,1,1491,0
95,3,10,6,-0.1106565669178962,0.9112755060195924,1.8475010395050049,0.0,0.4077833592891693,-2.311754941940308,0.4213351011276245,0.0,-1.1899993419647217,0.6645570397377014,-0.0324651002883911,0.0,-1.3733525276184082,0.6772964596748352,1,0,781,0
96,3,10,7,-0.1106565669178962,0.9112755060195924,1.8475010395050049,0.0,-1.7044181823730469,0.675033450126648,-0.2426111698150634,0.0,1.0997477769851685,-0.3652339577674866,-0.1996761858463287,0.0,0.3555221259593963,-0.8234250545501709,1,1,3971,0
97,3,10,8,-0.1106565669178962,0.9112755060195924,1.8475010395050049,0.0,-0.2465182840824127,0.284314751625061,-1.3094898462295532,0.0,-0.8481175303459167,1.6211096048355105,0.6924161911010742,0.0,-2.13291597366333,2.8503670692443848,1,1,1804,0
98,3,10,9,-0.1106565669178962,0.9112755060195924,1.8475010395050049,0.0,-0.0705377832055091,0.4404380321502685,0.5242295861244202,0.0,-0.3988166451454162,1.1935733556747437,1.1343269348144531,0.0,1.3776805400848389,3.227476119995117,1,1,864,0
99,3,10,10,-0.1106565669178962,0.9112755060195924,1.8475010395050049,0.0,0.0750775262713432,-1.884288311004639,0.2110627442598343,0.0,1.6893805265426636,0.4536046385765075,-1.07916259765625,0.0,-1.3354748487472534,-1.7673362493515017,1,1,971,0
100,4,11,1,-2.137230396270752,3.359570264816284,-0.539027750492096,0.0479443967342376,-0.7559218406677246,-0.2676711976528168,1.5534472465515137,-0.2910430133342743,1.3402608633041382,-0.5582154989242554,0.472529649734497,0.1032817959785461,-0.1349861621856689,-4.989564895629883,1,1,1269,0
101,4,11,2,-2.137230396270752,3.359570264816284,-0.539027750492096,0.0479443967342376,1.4228118658065796,1.0681134462356567,0.4224224984645843,-0.0136817842721939,-0.1252794861793518,-1.431122660636902,0.5942056775093079,0.8082476258277893,0.3191719055175781,-4.82174825668335,1,1,728,0
102,4,11,3,-2.137230396270752,3.359570264816284,-0.539027750492096,0.0479443967342376,-1.1097235679626465,0.1957729309797287,-1.7941303253173828,-1.5830602645874023,0.7617267370223999,0.3852963149547577,0.8891341090202332,-0.0843788534402847,3.9206349849700928,-0.8168689012527466,1,1,1598,0
103,4,11,4,-2.137230396270752,3.359570264816284,-0.539027750492096,0.0479443967342376,0.8766124248504639,0.0943234115839004,1.9216513633728027,1.2471318244934082,-1.1863347291946411,-0.2184066176414489,0.7440921664237976,-1.1706150770187378,-2.53266716003418,1.3445075750350952,1,1,1738,0
104,4,11,5,-2.137230396270752,3.359570264816284,-0.539027750492096,0.0479443967342376,0.6227027177810669,2.20206618309021,-0.6844424605369568,1.2848107814788818,-0.077787697315216,-0.7433894872665405,4.11388111114502,0.0052514979615807,6.497669696807861,-4.548463344573975,1,0,2061,0
105,4,11,6,-2.137230396270752,3.359570264816284,-0.539027750492096,0.0479443967342376,-0.6415236592292786,-0.5002544522285461,0.3421277701854706,0.0102082565426826,0.950032651424408,-0.5695189237594604,1.5280667543411257,0.8114804029464722,-0.4934830665588379,-4.728542327880859,1,0,724,0
106,4,11,7,-2.137230396270752,3.359570264816284,-0.539027750492096,0.0479443967342376,1.6297307014465332,-0.4246613085269928,0.3470108211040497,-0.4071905612945556,-0.1568996012210846,-0.7739428281784058,0.5208539962768555,-0.3374035656452179,-5.116360664367676,-2.561716318130493,1,0,930,0
107,4,11,8,-2.137230396270752,3.359570264816284,-0.539027750492096,0.0479443967342376,-1.360104203224182,-0.9157468676567078,0.33081915974617,1.6592763662338257,0.4171764850616455,-1.435394287109375,0.1335150003433227,-0.3816186487674713,-0.2684275805950165,-5.804174423217773,1,1,1066,0
108,4,11,9,-2.137230396270752,3.359570264816284,-0.539027750492096,0.0479443967342376,1.0302934646606443,0.2886281907558441,0.6244652271270752,-2.6831278800964355,-0.8472651839256287,0.9514327049255372,-0.4415476024150848,-0.222472608089447,-1.6975528001785278,5.234545707702637,1,1,815,0
109,4,11,10,-2.137230396270752,3.359570264816284,-0.539027750492096,0.0479443967342376,0.6714202165603638,-0.0727807953953743,0.7146762609481812,0.0230197701603174,0.4172561764717102,-0.6500890254974365,2.644991397857666,2.136859655380249,-2.0636186599731445,-4.399065971374512,1,0,859,0
110,2,12,1,-0.461921364068985,-0.0029287876095622,0.0,0.0,-0.1806660443544387,0.484115868806839,0.0,0.0,-0.9181330800056458,0.1496537178754806,0.0,0.0,0.0820356309413909,0.4236669838428497,1,0,2560,0
111,2,12,2,-0.461921364068985,-0.0029287876095622,0.0,0.0,0.1322706490755081,0.1230354160070419,0.0,0.0,-0.5148598551750183,0.4936302006244659,0.0,0.0,-0.061458982527256,0.2363790273666381,1,0,1956,0
112,2,12,3,-0.461921364068985,-0.0029287876095622,0.0,0.0,1.3919647932052612,0.6118374466896057,0.0,0.0,0.3068827390670776,0.1436765938997268,0.0,0.0,-0.6447702050209045,-0.1421764940023422,1,1,894,0
113,2,12,4,-0.461921364068985,-0.0029287876095622,0.0,0.0,-0.0605903789401054,0.7703092694282532,0.0,0.0,-1.1102585792541504,0.620506227016449,0.0,0.0,0.0257319174706935,0.5110347867012024,1,1,1062,0
114,2,12,5,-0.461921364068985,-0.0029287876095622,0.0,0.0,0.9970684051513672,0.002225725678727,0.0,0.0,-0.8321166634559631,0.2805587947368622,0.0,0.0,-0.4605737328529358,0.383550763130188,1,1,871,0
115,2,12,6,-0.461921364068985,-0.0029287876095622,0.0,0.0,-1.842042565345764,-0.6501029133796692,0.0,0.0,0.124457262456417,1.75208842754364,0.0,0.0,0.8527828454971313,-0.0626209676265716,1,0,787,0
116,2,12,7,-0.461921364068985,-0.0029287876095622,0.0,0.0,0.7276498079299927,-0.8659780025482178,0.0,0.0,-0.3483921587467193,0.9929298758506776,0.0,0.0,-0.333580732345581,0.1580217033624649,1,0,1996,0
117,2,12,8,-0.461921364068985,-0.0029287876095622,0.0,0.0,-1.0047773122787476,3.2275619506835938,0.0,0.0,-0.1295545399188995,-0.2306833863258361,0.0,0.0,0.4546752572059631,0.0605196319520473,1,0,1568,0
118,2,12,9,-0.461921364068985,-0.0029287876095622,0.0,0.0,-0.632780134677887,0.3084239661693573,0.0,0.0,-0.0097053134813904,1.8904296159744265,0.0,0.0,0.2913913428783417,-0.0010535749606788,1,0,821,0
119,2,12,10,-0.461921364068985,-0.0029287876095622,0.0,0.0,1.6328128576278689,1.029376745223999,0.0,0.0,-0.5395947694778442,0.42659592628479,0.0,0.0,-0.7572459578514099,0.2480009496212005,1,1,828,0
120,3,13,1,-0.8174760341644287,2.381334066390991,2.565471887588501,0.0,0.2103325575590133,-1.280761480331421,-1.3891894817352295,0.0,0.8240719437599182,0.4047098755836487,1.3002660274505615,0.0,-6.785789489746094,3.625886201858521,1,0,2624,0
121,3,13,2,-0.8174760341644287,2.381334066390991,2.565471887588501,0.0,0.6531834602355957,-0.0771227031946182,0.2025495916604995,0.0,2.057313680648804,-0.07066161185503,0.4573930203914642,0.0,-0.1979814767837524,-0.6766446828842163,1,0,1868,0
122,3,13,3,-0.8174760341644287,2.381334066390991,2.565471887588501,0.0,0.7980625629425049,-0.8329960107803345,-1.2371565103530884,0.0,1.5387680530548096,0.5604572296142578,-0.6671918034553528,0.0,-5.809928894042969,-1.6349319219589231,1,0,784,0
123,3,13,4,-0.8174760341644287,2.381334066390991,2.565471887588501,0.0,-0.2288569808006286,0.0485770441591739,-0.1564736813306808,0.0,-0.5714737772941589,0.2670169770717621,1.172882318496704,0.0,-0.098665565252304,4.1120195388793945,1,1,2024,0
124,3,13,5,-0.8174760341644287,2.381334066390991,2.565471887588501,0.0,0.942961812019348,1.710344314575195,-0.8027713894844055,0.0,1.5083630084991455,-1.1563076972961426,0.9002174735069275,0.0,1.2425651550292969,-1.6771228313446045,1,1,657,0
125,3,13,6,-0.8174760341644287,2.381334066390991,2.565471887588501,0.0,0.5544928312301636,-0.6394277215003967,0.7543829083442688,0.0,-0.5209057927131653,0.6089445352554321,1.2086358070373535,0.0,-0.0406274795532226,4.976649284362793,1,1,646,0
126,3,13,7,-0.8174760341644287,2.381334066390991,2.565471887588501,0.0,-0.8604514598846436,-0.8412023782730103,-1.249006271362305,0.0,0.0347350388765335,0.2581563591957092,0.0805940553545951,0.0,-4.50407600402832,0.7931232452392578,1,1,687,0
127,3,13,8,-0.8174760341644287,2.381334066390991,2.565471887588501,0.0,-0.7605381608009338,1.5371432304382324,0.7763708233833313,0.0,-0.6551594734191895,-0.2680016756057739,1.199907898902893,0.0,6.273930549621582,2.975705623626709,1,0,919,0
128,3,13,9,-0.8174760341644287,2.381334066390991,2.565471887588501,0.0,-1.0016984939575195,-0.5016198754310608,-0.2469076067209243,0.0,-0.4583667814731598,-0.4685376286506653,0.2337567508220672,0.0,-1.009094476699829,-0.1413443386554718,1,1,2282,0
129,3,13,10,-0.8174760341644287,2.381334066390991,2.565471887588501,0.0,0.4919101893901825,0.572877049446106,-0.8465059399604797,0.0,-0.0941575616598129,-0.7383008599281311,-0.2645080685615539,0.0,-1.2096002101898191,-2.359757423400879,1,0,816,0
130,4,14,1,-0.1822460889816284,1.9575899839401243,0.3183151483535766,-0.9838687181472778,1.627200484275818,-1.94024121761322,-1.0075922012329102,0.4889642894268036,-1.7427560091018677,0.8126908540725708,1.184895634651184,-0.1884680092334747,-4.8965559005737305,2.4711239337921143,1,0,2710,0
131,4,14,2,-0.1822460889816284,1.9575899839401243,0.3183151483535766,-0.9838687181472778,-0.2905961871147156,0.7930943965911865,-0.4013625681400299,0.1867737770080566,-0.7603129744529724,1.0975096225738523,-0.4230144917964935,-0.2763381600379944,1.2939929962158203,2.4242663383483887,1,1,1958,0
132,4,14,3,-0.1822460889816284,1.9575899839401243,0.3183151483535766,-0.9838687181472778,-2.052498817443848,0.8220739364624023,-0.0483110137283802,0.961474359035492,0.2426565587520599,0.4479178786277771,-0.4505436420440674,1.07984721660614,1.0220009088516235,-0.3732264041900635,1,0,3314,0
133,4,14,4,-0.1822460889816284,1.9575899839401243,0.3183151483535766,-0.9838687181472778,0.8692938089370728,1.1834808588027954,2.4057810306549072,-0.500641405582428,0.0165750551968812,-0.9998286962509156,-0.7820144295692444,-1.0961878299713137,3.4167070388793945,-1.13069748878479,1,0,3139,0
134,4,14,5,-0.1822460889816284,1.9575899839401243,0.3183151483535766,-0.9838687181472778,-0.9039227962493896,-0.3933728635311126,1.4200282096862793,2.013269424438477,-0.0410193279385566,0.5158554315567017,-0.681322455406189,-0.1848528832197189,-2.1341025829315186,0.9823047518730164,1,1,883,0
135,4,14,6,-0.1822460889816284,1.9575899839401243,0.3183151483535766,-0.9838687181472778,-0.3010818660259247,-0.3729302287101745,1.8557897806167605,0.6846171617507935,0.150363802909851,0.1921385377645492,2.016453266143799,0.8228083848953247,-0.7580208778381348,0.1810574531555175,1,1,675,0
136,4,14,7,-0.1822460889816284,1.9575899839401243,0.3183151483535766,-0.9838687181472778,0.3336247503757477,-0.0885568708181381,1.0305882692337036,-0.5164625644683838,0.0063835377804934,0.9895043969154358,-1.8159527778625488,0.4512843787670135,0.6020233631134033,0.9138306379318236,1,1,728,0
137,4,14,8,-0.1822460889816284,1.9575899839401243,0.3183151483535766,-0.9838687181472778,1.564801812171936,-0.230145588517189,-1.8366916179656985,0.6219037175178528,-1.3307040929794312,-1.180245876312256,-1.650075912475586,-0.994296669960022,-1.9322280883789065,-1.6149086952209473,1,0,1095,0
138,4,14,9,-0.1822460889816284,1.9575899839401243,0.3183151483535766,-0.9838687181472778,0.477805346250534,1.564522385597229,0.3902091383934021,-0.095911867916584,2.5170297622680664,-0.6311401724815369,1.1066511869430542,-0.3078642189502716,3.1941893100738525,-1.0390708446502686,1,0,759,0
139,4,14,10,-0.1822460889816284,1.9575899839401243,0.3183151483535766,-0.9838687181472778,0.9239677786827089,0.967091143131256,1.4605906009674072,2.112554788589477,-0.8710945248603821,-0.177031323313713,-0.3594154119491577,0.6117657423019409,0.1112299114465713,-0.9041057229042052,1,0,1231,0
140,4,15,1,-0.5796897411346436,-0.5674392580986023,0.7361517548561096,-0.9448404908180236,0.8087714314460754,-0.9390087723731996,0.414576381444931,-0.0010667337337508,1.2757831811904907,-1.0188339948654177,-0.624409556388855,0.7449562549591064,0.3701929450035095,-1.324957013130188,1,0,2759,0
141,4,15,2,-0.5796897411346436,-0.5674392580986023,0.7361517548561096,-0.9448404908180236,0.4040853679180145,1.006049394607544,1.1931437253952026,0.2401800006628036,0.1863571852445602,-0.0035965575370937,2.615523099899292,-0.5784026384353638,-0.153713047504425,2.365931749343872,1,1,923,0
142,4,15,3,-0.5796897411346436,-0.5674392580986023,0.7361517548561096,-0.9448404908180236,0.4262670576572418,0.124426357448101,1.1651192903518677,-1.461227297782898,-0.7582806348800659,0.535939633846283,2.0073063373565674,0.2711502611637115,1.9206242561340328,1.356942653656006,1,1,856,0
143,4,15,4,-0.5796897411346436,-0.5674392580986023,0.7361517548561096,-0.9448404908180236,1.2611112594604492,-0.0101515604183077,1.632876753807068,-1.5151174068450928,0.1046378910541534,0.5705384612083435,0.5338911414146423,0.0296520479023456,1.908296585083008,-0.0193949937820434,1,0,937,0
144,4,15,5,-0.5796897411346436,-0.5674392580986023,0.7361517548561096,-0.9448404908180236,0.6050460338592529,0.2605476677417755,-0.4398317039012909,-0.1544142216444015,-2.471803665161133,-0.0426160879433155,-0.4269733428955078,-0.1787706464529037,-0.6764700412750244,1.3116538524627686,1,1,3014,0
145,4,15,6,-0.5796897411346436,-0.5674392580986023,0.7361517548561096,-0.9448404908180236,0.5751053690910339,-0.3388226330280304,0.2217327654361724,-0.9011662602424622,-0.358468621969223,2.046288251876831,-2.350761651992798,2.562103748321533,0.8735659122467041,-5.104640483856201,1,0,2239,0
146,4,15,7,-0.5796897411346436,-0.5674392580986023,0.7361517548561096,-0.9448404908180236,0.4280895888805389,-0.2839730083942413,-0.5771180987358093,0.8716235756874084,-0.3098430335521698,0.1076565533876419,0.4947378933429718,0.1709035187959671,-1.3354134559631348,0.3212498724460602,1,1,1356,0
147,4,15,8,-0.5796897411346436,-0.5674392580986023,0.7361517548561096,-0.9448404908180236,-0.3756166398525238,0.5448541045188904,-0.2638318240642547,0.503210186958313,-0.0533738434314727,0.40971440076828,-1.1540484428405762,-0.2233354300260543,-0.7611041069030762,-0.8400862216949463,1,0,3141,0
148,4,15,9,-0.5796897411346436,-0.5674392580986023,0.7361517548561096,-0.9448404908180236,0.4436177015304565,-0.2606194615364074,-0.5690792202949524,0.7257326245307922,-0.5599068999290466,-0.0071448301896452,0.2567906975746155,-1.6144129037857056,-1.2139050960540771,2.0430262088775635,1,1,977,0
149,4,15,10,-0.5796897411346436,-0.5674392580986023,0.7361517548561096,-0.9448404908180236,-0.3703016936779022,0.1581271141767501,1.691636562347412,2.570972442626953,0.5316808223724365,-0.6386500000953674,1.0701589584350586,0.1340952664613723,-1.0589252710342407,0.7152860164642334,1,0,787,0
0,4,1,1,0.236050546169281,-0.3582106232643127,-0.6152609586715698,0.7644233703613281,0.8590057492256165,0.6660228967666626,0.9143305420875548,0.1519213914871215,0.5545241832733154,1.2931838035583496,-1.2798963785171509,-0.8305996060371399,-0.4822273552417755,-0.1797959208488464,0,-1,3002,0
1,4,1,2,0.236050546169281,-0.3582106232643127,-0.6152609586715698,0.7644233703613281,-1.2611387968063354,-1.280895709991455,-1.6981254816055298,-1.0291513204574585,0.4383910298347473,-0.1390569806098938,-0.0562316291034221,0.7117023468017578,0.4192208647727966,0.7319331765174866,0,0,1709,0
2,4,1,3,0.236050546169281,-0.3582106232643127,-0.6152609586715698,0.7644233703613281,-1.250487208366394,-0.1052616611123085,-0.8590429425239563,0.0585171394050121,1.026814103126526,-0.7847355604171753,-1.457478404045105,1.009036898612976,0.3157951235771179,2.1915416717529297,0,1,843,0
3,4,1,4,0.236050546169281,-0.3582106232643127,-0.6152609586715698,0.7644233703613281,-2.279513120651245,-1.2072391510009766,-0.122661717236042,-0.2739578187465668,-0.0035215057432651,0.2174687683582306,-1.2890520095825195,1.3739771842956543,-0.2395852506160736,1.7646727561950684,0,1,865,0
4,4,1,5,0.236050546169281,-0.3582106232643127,-0.6152609586715698,0.7644233703613281,-1.0723081827163696,-1.2355140447616575,-0.1146304085850715,-0.62961745262146,1.4874144792556765,1.4502058029174805,0.1011928245425224,0.5211817622184753,-0.2213113605976104,0.1677694022655487,0,1,763,0
5,4,1,6,0.236050546169281,-0.3582106232643127,-0.6152609586715698,0.7644233703613281,-0.6199799180030823,0.3155186772346496,0.1254688203334808,0.2247897684574127,1.7769041061401367,0.5467294454574585,-0.6821140646934509,-0.8751437067985535,-0.1647302508354187,-0.0257072448730468,0,1,637,0
6,4,1,7,0.236050546169281,-0.3582106232643127,-0.6152609586715698,0.7644233703613281,1.842769145965576,-0.6274368166923523,-0.2890636026859283,-0.3427751362323761,0.5378303527832031,0.7185810208320618,-2.051605224609375,0.7735358476638794,0.5755653977394104,1.7231333255767822,0,0,919,0
7,4,1,8,0.236050546169281,-0.3582106232643127,-0.6152609586715698,0.7644233703613281,-0.9179045557975768,-1.770089030265808,-0.8501664400100708,0.0051234858110547,-0.5894907116889954,-0.8697458505630493,0.3380436897277832,0.6391046047210693,0.9443835020065308,0.4529640078544616,0,1,973,0
8,4,1,9,0.236050546169281,-0.3582106232643127,-0.6152609586715698,0.7644233703613281,0.8940702676773071,0.05711505189538,-0.6195318698883057,-0.3625293672084808,0.363996297121048,-0.1276008784770965,0.5056508779525757,-1.041528344154358,0.2946344017982483,-0.9756463766098022,0,0,961,0
9,4,1,10,0.236050546169281,-0.3582106232643127,-0.6152609586715698,0.7644233703613281,0.5517208576202393,-0.1956133991479873,0.6743625402450562,-1.6299532651901243,-1.1778334379196167,-1.4886473417282104,0.1086150854825973,0.3747559785842895,-1.460578680038452,0.4748667180538177,0,0,640,0
10,3,2,1,-0.8083391785621643,1.7272130250930786,-1.0605432987213137,0.0,-1.6020755767822266,-0.1792458295822143,-0.8531986474990845,0.0,0.7831955552101135,-1.0935771465301514,0.8806456327438354,0.0,1.8902788162231443,-3.4558911323547363,0,1,1313,0
11,3,2,2,-0.8083391785621643,1.7272130250930786,-1.0605432987213137,0.0,0.532131016254425,0.6816115975379944,0.917413294315338,0.0,0.2928831875324249,-0.2534784376621246,0.5757153630256653,0.0,-0.2258104681968689,-1.2851312160491943,0,1,802,0
12,3,2,3,-0.8083391785621643,1.7272130250930786,-1.0605432987213137,0.0,-0.7641887664794922,-0.1051211506128311,-0.858892023563385,0.0,-0.504668653011322,0.3656727075576782,0.0394241772592067,0.0,1.3470492362976074,0.99772709608078,0,0,858,0
13,3,2,4,-0.8083391785621643,1.7272130250930786,-1.0605432987213137,0.0,0.8722444176673889,-0.4185474216938019,0.0858503058552742,0.0,0.0875274166464805,-0.3001124858856201,0.3239499032497406,0.0,-1.5190379619598389,-0.932672917842865,0,0,785,0
14,3,2,5,-0.8083391785621643,1.7272130250930786,-1.0605432987213137,0.0,0.565269410610199,-1.0423682928085327,-0.0160240102559328,0.0,-2.6950600147247314,-0.3704235255718231,-1.7446691989898682,0.0,-2.2403273582458496,3.38901948928833,0,1,1032,0
15,3,2,6,-0.8083391785621643,1.7272130250930786,-1.0605432987213137,0.0,-0.8419325947761536,-0.49977907538414,-0.2390225380659103,0.0,0.1910828202962875,-0.6886218190193176,-0.4480586051940918,0.0,0.070835918188095,-0.8686708211898804,0,0,1120,0
16,3,2,7,-0.8083391785621643,1.7272130250930786,-1.0605432987213137,0.0,0.3884540498256683,1.2951864004135132,-1.7067145109176636,0.0,1.7290035486221311,1.054157257080078,0.7623149156570435,0.0,3.733104705810547,-0.3853351175785064,0,0,748,0
17,3,2,8,-0.8083391785621643,1.7272130250930786,-1.0605432987213137,0.0,-0.2819307148456573,-1.4070392847061155,-1.6834533214569092,0.0,-0.3980065584182739,-1.9059516191482544,0.7819982171058655,0.0,-0.4169857501983642,-3.79960298538208,0,1,1119,0
18,3,2,9,-0.8083391785621643,1.7272130250930786,-1.0605432987213137,0.0,0.8458255529403687,-0.994526207447052,0.4687557518482208,0.0,-1.969282150268555,-0.5406838059425354,0.9784192442893982,0.0,-2.8986082077026367,-0.3796842098236084,0,1,977,0
19,3,2,10,-0.8083391785621643,1.7272130250930786,-1.0605432987213137,0.0,0.1525465995073318,-0.5324239134788513,0.5429896712303162,0.0,-1.4307801723480225,0.1786580234766006,-0.1467210799455642,0.0,-1.6187829971313477,1.6207401752471924,0,1,810,0
20,4,3,1,-0.4421100914478302,-0.1728065907955169,-0.200148120522499,-0.6808017492294312,-0.1609330475330352,-0.4508885145187378,-1.1435420513153076,-0.4650308489799499,-0.6818053722381592,0.6087391376495361,-0.1000074669718742,0.115191102027893,0.6945382356643677,0.1378328949213028,0,1,2767,0
21,4,3,2,-0.4421100914478302,-0.1728065907955169,-0.200148120522499,-0.6808017492294312,-0.6886914968490601,0.1878575533628463,1.4693175554275513,0.2990948259830475,-0.5708929300308228,-0.5449995398521423,-0.1414491534233093,-0.1810547113418579,-0.2256909906864166,0.4981501698493957,0,0,1219,0
22,4,3,3,-0.4421100914478302,-0.1728065907955169,-0.200148120522499,-0.6808017492294312,0.8968527317047119,1.0427504777908323,-0.1105737313628196,-1.1620832681655884,-1.2208592891693115,0.9505839347839355,0.7945266962051392,0.4003138244152069,0.2365776151418686,-0.0560703426599502,0,0,673,0
23,4,3,4,-0.4421100914478302,-0.1728065907955169,-0.200148120522499,-0.6808017492294312,0.8071273565292358,0.2310128211975097,1.2233184576034546,-1.8192362785339355,0.4360301494598388,-0.0297072604298591,0.5309394598007202,-1.9110785722732544,0.5969346761703491,1.0071594715118408,0,0,824,0
24,4,3,5,-0.4421100914478302,-0.1728065907955169,-0.200148120522499,-0.6808017492294312,1.050090193748474,-0.1043655127286911,-0.0633987188339233,-0.3054686784744262,1.6904665231704712,1.024149775505066,2.360276699066162,-0.2654834389686584,-0.2255676835775375,-1.2160155773162842,0,1,834,0
25,4,3,6,-0.4421100914478302,-0.1728065907955169,-0.200148120522499,-0.6808017492294312,0.7137093544006348,-0.0775350183248519,-0.1183633431792259,-0.2454705089330673,-0.6962867379188538,0.7346944808959961,-1.9384692907333372,-1.218125581741333,-0.1113326027989387,1.398158311843872,0,0,821,0
26,4,3,7,-0.4421100914478302,-0.1728065907955169,-0.200148120522499,-0.6808017492294312,-0.776319682598114,0.4300509095191955,-1.5670406818389893,-1.3035058975219729,1.2563703060150146,0.7914823293685913,0.7783845067024231,-1.1474144458770752,1.4699724912643433,-0.0668577700853347,0,1,819,0
27,4,3,8,-0.4421100914478302,-0.1728065907955169,-0.200148120522499,-0.6808017492294312,-1.1375337839126587,-0.5677998661994934,-0.6000967025756836,-1.1594384908676147,0.6652049422264099,-0.1292313337326049,1.2869999408721924,0.061515174806118,1.5104907751083374,-0.5712320804595947,0,1,1078,0
28,4,3,9,-0.4421100914478302,-0.1728065907955169,-0.200148120522499,-0.6808017492294312,-1.5761373043060305,0.3805799782276153,-0.1594753116369247,0.7536113858222961,0.2402021586894989,0.3573101758956909,-0.7688847780227661,1.1427520513534546,0.1499181985855102,-0.792038083076477,0,1,726,0
29,4,3,10,-0.4421100914478302,-0.1728065907955169,-0.200148120522499,-0.6808017492294312,-0.6836747527122498,0.9658838510513306,-0.770206868648529,1.2158039808273315,0.8557371497154236,0.8910995721817017,1.1280299425125122,0.3552021980285644,-0.5382176041603088,-0.999913215637207,0,1,789,0
30,4,4,1,1.8201078176498413,-0.99185973405838,-0.1648383736610412,-0.2562960088253021,1.1535710096359253,0.4770366251468658,1.6933554410934448,-0.1691057533025741,-0.6855571269989014,-1.09527850151062,0.8970392942428589,0.9997298121452332,1.3906813859939575,-0.5655184388160706,0,0,805,0
31,4,4,2,1.8201078176498413,-0.99185973405838,-0.1648383736610412,-0.2562960088253021,-1.2624564170837402,-0.1707272082567215,0.1994464248418808,-1.804017424583435,1.511392593383789,0.1378422230482101,0.2984600663185119,-0.2811292111873626,-1.698983073234558,2.6370317935943604,0,1,719,0
32,4,4,3,1.8201078176498413,-0.99185973405838,-0.1648383736610412,-0.2562960088253021,0.4348553419113159,-0.7210897207260132,0.5912295579910278,1.9583420753479004,-1.0440726280212402,0.0583847872912883,0.4445398151874542,2.9248814582824707,0.9073308706283568,-2.781146764755249,0,0,697,0
33,4,4,4,1.8201078176498413,-0.99185973405838,-0.1648383736610412,-0.2562960088253021,-0.2036952376365661,1.00298273563385,-0.2795727849006653,0.5936241745948792,-2.287325620651245,-0.5068951845169067,-1.879095196723938,-0.6745108366012573,-1.471624732017517,-3.1777889728546143,0,0,1066,0
34,4,4,5,1.8201078176498413,-0.99185973405838,-0.1648383736610412,-0.2562960088253021,0.975592076778412,-0.5300111770629883,-1.16326904296875,0.0164697486907243,0.5441206693649292,-0.2798279821872711,0.7889378666877747,0.2502296864986419,2.488909721374512,1.0737284421920776,0,0,845,0
35,4,4,6,1.8201078176498413,-0.99185973405838,-0.1648383736610412,-0.2562960088253021,-0.1511571109294891,-0.1873643398284912,1.902842879295349,-1.4409615993499756,-2.049194097518921,2.072375774383545,0.5922196507453918,1.2712303400039673,-0.0336318910121917,-6.2086920738220215,0,0,1309,0
36,4,4,7,1.8201078176498413,-0.99185973405838,-0.1648383736610412,-0.2562960088253021,0.7692899703979492,-0.3381989896297455,-0.055182047188282,1.4388258457183838,1.346283793449402,-0.539797306060791,1.983160257339477,-1.4662928581237793,1.375967502593994,3.034688949584961,0,1,987,0
37,4,4,8,1.8201078176498413,-0.99185973405838,-0.1648383736610412,-0.2562960088253021,-0.6587128043174744,-0.1474636793136596,0.1107954233884811,-1.0833256244659424,-0.6235836148262024,0.9850831031799316,1.5495655536651611,-1.6806451082229614,-0.7932764291763306,-1.9367388486862185,0,1,2342,0
38,4,4,9,1.8201078176498413,-0.99185973405838,-0.1648383736610412,-0.2562960088253021,-0.0987651422619819,1.770039677619934,0.2378233969211578,-1.0461905002593994,0.509596049785614,1.4564156532287598,-0.8091170191764832,-0.8827625513076782,-1.706462264060974,-0.1574183106422424,0,1,857,0
39,4,4,10,1.8201078176498413,-0.99185973405838,-0.1648383736610412,-0.2562960088253021,0.9565067291259766,-0.8593752980232239,-0.9460636377334596,0.5976819396018982,-0.6583506464958191,-1.3569027185440063,-0.9628117680549622,0.510805070400238,2.596089124679565,0.1753790378570556,0,0,669,0
40,2,5,1,-0.0025671212933957,-0.4957230985164642,0.0,0.0,-0.1293520033359527,1.3685044050216677,0.0,0.0,1.0188772678375244,0.2674557566642761,0.0,0.0,-0.6780672073364258,-0.1351995766162872,0,1,1238,0
41,2,5,2,-0.0025671212933957,-0.4957230985164642,0.0,0.0,-0.2492536604404449,-1.493113398551941,0.0,0.0,-0.426339715719223,-0.7232333421707153,0.0,0.0,0.7408106923103333,0.3596179485321045,0,0,1302,0
42,2,5,3,-0.0025671212933957,-0.4957230985164642,0.0,0.0,0.0147745367139577,-0.667808473110199,0.0,0.0,-0.903624415397644,0.0201881136745214,0.0,0.0,0.3310101628303528,-0.0076880007982254,0,0,840,0
43,2,5,4,-0.0025671212933957,-0.4957230985164642,0.0,0.0,-0.1353346556425094,-0.2977254986763,0.0,0.0,0.6766089797019958,-0.3290412425994873,0.0,0.0,0.1479368209838867,0.1613764017820358,0,1,947,0
44,2,5,5,-0.0025671212933957,-0.4957230985164642,0.0,0.0,-0.2761855125427246,1.735965371131897,0.0,0.0,2.229285717010498,0.0318028964102268,0.0,0.0,-0.8598491549491882,-0.0214882772415876,0,1,656,0
45,2,5,6,-0.0025671212933957,-0.4957230985164642,0.0,0.0,-0.2121447473764419,0.6624874472618103,0.0,0.0,-0.0596951395273208,-1.74111008644104,0.0,0.0,-0.327865719795227,0.8632617592811584,0,1,806,0
46,2,5,7,-0.0025671212933957,-0.4957230985164642,0.0,0.0,1.2033354043960571,-0.4552659094333648,0.0,0.0,-0.8481838703155518,-0.4477363228797912,0.0,0.0,0.2225967198610305,0.224130630493164,0,0,766,0
47,2,5,8,-0.0025671212933957,-0.4957230985164642,0.0,0.0,0.797284722328186,0.5723130702972412,0.0,0.0,0.0913365855813026,-0.5449960827827454,0.0,0.0,-0.2857555449008941,0.2699326872825622,0,0,694,0
48,2,5,9,-0.0025671212933957,-0.4957230985164642,0.0,0.0,1.021639704704285,0.2631836831569671,0.0,0.0,1.3848626613616943,0.1798988282680511,0.0,0.0,-0.1330889165401458,-0.09273511916399,0,1,778,0
49,2,5,10,-0.0025671212933957,-0.4957230985164642,0.0,0.0,-0.6832969784736633,-1.002050757408142,0.0,0.0,-1.1665068864822388,-0.5455099940299988,0.0,0.0,0.4984938204288482,0.2734164595603943,0,0,1148,0
50,2,6,1,-0.5127558708190918,0.2797746658325195,0.0,0.0,0.4995031952857971,0.7420786619186401,0.0,0.0,1.029191255569458,-0.220924511551857,0.0,0.0,-0.0485083758831024,-0.5895329117774963,0,1,1342,0
51,2,6,2,-0.5127558708190918,0.2797746658325195,0.0,0.0,-0.1274349242448806,-0.9392306804656982,0.0,0.0,0.8092812895774841,0.1510228663682937,0.0,0.0,-0.1974299401044845,-0.3727113604545593,0,1,758,0
52,2,6,3,-0.5127558708190918,0.2797746658325195,0.0,0.0,0.1390608549118042,-0.8767642378807068,0.0,0.0,-1.1333978176116943,0.6258273720741272,0.0,0.0,-0.3166006803512573,0.7562470436096191,0,1,562,0
53,2,6,4,-0.5127558708190918,0.2797746658325195,0.0,0.0,-0.9184558987617492,1.4366414546966553,0.0,0.0,0.8774298429489136,-0.542488157749176,0.0,0.0,0.8728795647621155,-0.6016817688941956,0,0,901,0
54,2,6,5,-0.5127558708190918,0.2797746658325195,0.0,0.0,-0.5873545408248901,-0.9731742739677428,0.0,0.0,0.3097315430641174,-0.8616780042648315,0.0,0.0,0.0288999769836664,-0.3998923301696777,0,0,1668,0
55,2,6,6,-0.5127558708190918,0.2797746658325195,0.0,0.0,-2.1866016387939453,-0.1137152984738349,0.0,0.0,-0.5163553357124329,0.6511143445968628,0.0,0.0,1.0893781185150146,0.4469295144081116,0,0,857,0
56,2,6,7,-0.5127558708190918,0.2797746658325195,0.0,0.0,1.2180590629577637,1.2789863348007202,0.0,0.0,2.2192065715789795,-1.7861541509628296,0.0,0.0,-0.2667389512062073,-1.637631893157959,0,0,856,0
57,2,6,8,-0.5127558708190918,0.2797746658325195,0.0,0.0,-0.7216143608093262,0.910511553287506,0.0,0.0,-1.1698096990585327,0.8560053706169128,0.0,0.0,0.6247500777244568,0.8393154144287109,0,1,1368,0
58,2,6,9,-0.5127558708190918,0.2797746658325195,0.0,0.0,0.117558516561985,-0.1849033683538437,0.0,0.0,0.1013975664973259,-1.22881019115448,0.0,0.0,-0.1120100915431976,-0.3957821726799011,0,1,1986,0
59,2,6,10,-0.5127558708190918,0.2797746658325195,0.0,0.0,-0.5303483605384827,-1.5417269468307495,0.0,0.0,1.0510910749435425,-1.3332607746124268,0.0,0.0,-0.1593968868255615,-0.9119657278060912,0,0,1381,0
60,4,7,1,-0.6112082600593567,0.8751350045204163,0.003082912415266,-1.7556703090667725,-0.0749174728989601,-0.7287001609802246,-0.5858867168426514,1.0616239309310913,-0.6350653171539307,-0.1851084530353546,-0.924115777015686,0.4932988584041595,-2.4575886726379395,-0.6427568793296814,0,1,1415,0
61,4,7,2,-0.6112082600593567,0.8751350045204163,0.003082912415266,-1.7556703090667725,-1.458451509475708,-2.554237127304077,0.2513564527034759,-0.5152726769447327,-1.38240385055542,0.0194331873208284,1.3082836866378784,1.1921201944351196,-0.4384608268737793,-1.2269935607910156,0,0,1245,0
62,4,7,3,-0.6112082600593567,0.8751350045204163,0.003082912415266,-1.7556703090667725,-2.4860057830810547,-0.9086155295372008,1.4122110605239868,-0.1843832433223724,0.0441631264984607,0.8138312697410583,-1.9580378532409668,-0.2473623007535934,1.0523759126663208,1.1134696006774902,0,0,730,0
63,4,7,4,-0.6112082600593567,0.8751350045204163,0.003082912415266,-1.7556703090667725,-0.846193790435791,0.1267185509204864,0.2133079022169113,-0.0812420547008514,0.2066946774721145,-0.4061524569988251,1.013272762298584,0.0090815657749772,0.7713883519172668,-0.4945921301841736,0,0,826,0
64,4,7,5,-0.6112082600593567,0.8751350045204163,0.003082912415266,-1.7556703090667725,1.3194400072097778,0.1035605892539024,-0.6078474521636963,2.4926834106445312,-0.0006669103750027,0.4701578021049499,-0.6607546806335449,2.0755927562713623,-5.094027519226074,-3.23423433303833,0,1,1000,0
65,4,7,6,-0.6112082600593567,0.8751350045204163,0.003082912415266,-1.7556703090667725,1.1174591779708862,1.1558407545089722,-1.5396840572357178,0.6891096234321594,-0.7741195559501648,-1.234022855758667,-0.0494001805782318,-0.2594523131847381,-0.8860796689987183,-0.1514278948307037,0,1,693,0
66,4,7,7,-0.6112082600593567,0.8751350045204163,0.003082912415266,-1.7556703090667725,0.246854081749916,-1.6364704370498655,0.748071014881134,0.1816117465496063,-0.6957741379737854,-0.6429358124732971,-0.0684710294008255,-0.2916509509086609,-1.8995559215545652,0.3744391202926636,0,1,803,0
67,4,7,8,-0.6112082600593567,0.8751350045204163,0.003082912415266,-1.7556703090667725,-1.557972431182861,-1.5072166919708252,-1.2157267332077026,-1.1244874000549316,-0.909574329853058,0.3256337940692901,0.685309886932373,0.6529252529144287,1.6037086248397827,-0.3032959699630737,0,1,1350,0
68,4,7,9,-0.6112082600593567,0.8751350045204163,0.003082912415266,-1.7556703090667725,-0.2223783880472183,0.6026082634925842,-1.6799620389938354,0.6005529761314392,0.9647433757781982,-1.6561603546142578,0.4959947466850281,-1.613257884979248,-0.3962690830230713,0.7948551177978516,0,0,794,0
69,4,7,10,-0.6112082600593567,0.8751350045204163,0.003082912415266,-1.7556703090667725,-0.723210871219635,-0.7648045420646667,-1.083444595336914,-0.544941782951355,-3.3370304107666016,0.6527482867240906,-0.7325776219367981,0.6619988083839417,0.7261232137680054,1.446353316307068,0,1,845,0
70,3,8,1,0.7783040404319763,-0.8444178104400635,-1.3580349683761597,0.0,-0.3333331048488617,-0.9397582411766052,-0.6999801397323608,0.0,-0.809754490852356,-0.4119345843791961,1.0439294576644895,0.0,1.4847116470336914,-1.7000830173492432,0,1,1929,0
71,3,8,2,0.7783040404319763,-0.8444178104400635,-1.3580349683761597,0.0,0.1346808671951294,0.1199183985590934,0.9079027771949768,0.0,0.1971377432346344,-0.8421562314033508,1.28529155254364,0.0,-1.2294023036956787,-0.8809060454368591,0,1,763,0
72,3,8,3,0.7783040404319763,-0.8444178104400635,-1.3580349683761597,0.0,-0.0818720608949661,0.7292788624763489,-2.4791085720062256,0.0,-0.1773834079504013,1.3403387069702148,-1.0272191762924194,0.0,2.687178611755371,0.1251354217529297,0,0,1159,0
73,3,8,4,0.7783040404319763,-0.8444178104400635,-1.3580349683761597,0.0,0.9757373929023744,-1.6412626504898071,0.142073780298233,0.0,1.054877519607544,-0.1608123630285263,-0.3855149149894714,0.0,1.9523906707763672,1.4803509712219238,0,0,724,0
74,3,8,5,0.7783040404319763,-0.8444178104400635,-1.3580349683761597,0.0,-0.5277683138847351,-0.2279933094978332,-0.4023888707160949,0.0,2.0020320415496826,-0.4723361432552337,0.2181865274906158,0.0,0.3282155990600586,1.660733699798584,0,1,1033,0
75,3,8,6,0.7783040404319763,-0.8444178104400635,-1.3580349683761597,0.0,1.175673484802246,1.033174991607666,0.7235973477363586,0.0,-0.7392941117286682,1.0223594903945925,-1.973830223083496,0.0,-0.940070390701294,1.241836428642273,0,1,1400,0
76,3,8,7,0.7783040404319763,-0.8444178104400635,-1.3580349683761597,0.0,-1.4284400939941406,-1.3279390335083008,0.5840525031089783,0.0,-0.146970510482788,0.9642964005470276,-0.3045176565647125,0.0,-0.7835890650749207,-0.5151112079620361,0,1,767,0
77,3,8,8,0.7783040404319763,-0.8444178104400635,-1.3580349683761597,0.0,-0.4786648154258728,1.185448169708252,0.7196473479270935,0.0,-1.2170079946517944,-0.0817562416195869,1.604312539100647,0.0,-2.3508665561676025,-3.056878566741944,0,1,699,0
78,3,8,9,0.7783040404319763,-0.8444178104400635,-1.3580349683761597,0.0,-0.0548702366650104,0.730780303478241,0.3910308480262756,0.0,0.7037498950958252,-0.1306812465190887,-1.0211296081542969,0.0,-1.190823316574097,2.0448107719421387,0,1,903,0
79,3,8,10,0.7783040404319763,-0.8444178104400635,-1.3580349683761597,0.0,-0.1429550796747207,0.1123000681400299,-0.0544208548963069,0.0,-0.5367971658706665,0.2727490663528442,0.6850182414054871,0.0,-0.1321852803230285,-1.578384280204773,0,0,1099,0
80,2,9,1,0.4713263511657715,0.5351636409759521,0.0,0.0,0.7635819911956787,0.6482425332069397,0.0,0.0,1.349736571311951,0.1615162789821624,0.0,0.0,0.7068121433258057,0.7226040363311768,0,1,1761,0
81,2,9,2,0.4713263511657715,0.5351636409759521,0.0,0.0,1.2932263612747192,0.4099843800067901,0.0,0.0,-0.3418735563755035,-0.5829854607582092,0.0,0.0,0.8289403915405273,-0.4731266498565674,0,0,1007,0
82,2,9,3,0.4713263511657715,0.5351636409759521,0.0,0.0,1.4697827100753784,1.5107444524765017,0.0,0.0,-0.3225179016590118,-0.3147479891777038,0.0,0.0,1.501242756843567,-0.320452868938446,0,0,705,0
83,2,9,4,0.4713263511657715,0.5351636409759521,0.0,0.0,-1.2792634963989258,-1.289753556251526,0.0,0.0,0.2685722708702087,-0.1351512968540191,0.0,0.0,-1.2931797504425049,0.0542571246623992,0,1,717,0
84,2,9,5,0.4713263511657715,0.5351636409759521,0.0,0.0,1.041970133781433,-2.2049238681793213,0.0,0.0,-1.1844203472137451,0.0547614395618438,0.0,0.0,-0.6888871192932129,-0.5289421677589417,0,0,869,0
85,2,9,6,0.4713263511657715,0.5351636409759521,0.0,0.0,0.9550840854644777,-0.001661108341068,0.0,0.0,1.4256943464279177,0.9062085747718812,0.0,0.0,0.4492673277854919,1.1569372415542605,0,1,1533,0
86,2,9,7,0.4713263511657715,0.5351636409759521,0.0,0.0,-0.0376316346228122,0.3576748669147491,0.0,0.0,1.0639750957489014,-2.486541509628296,0.0,0.0,0.1736778020858764,-0.829227089881897,0,1,862,0
87,2,9,8,0.4713263511657715,0.5351636409759521,0.0,0.0,0.2757942974567413,-0.3995626866817474,0.0,0.0,1.0031176805496216,-0.0657934099435806,0.0,0.0,-0.0838423073291778,0.4375855326652527,0,1,2402,0
88,2,9,9,0.4713263511657715,0.5351636409759521,0.0,0.0,1.006667137145996,2.2117486000061035,0.0,0.0,-0.4941389560699463,1.0573618412017822,0.0,0.0,1.658116102218628,0.3329609334468841,0,0,796,0
89,2,9,10,0.4713263511657715,0.5351636409759521,0.0,0.0,0.6281338334083557,0.2836960852146148,0.0,0.0,0.0510651655495166,-0.3196248412132263,0.0,0.0,0.4478798508644104,-0.1469832360744476,0,0,1177,0
90,2,10,1,0.4059831500053406,0.8880830407142639,0.0,0.0,0.2334587574005127,0.5847947001457214,0.0,0.0,1.7720409631729126,0.3324188888072967,0.0,0.0,0.6141265630722046,1.014634370803833,0,1,1209,0
91,2,10,2,0.4059831500053406,0.8880830407142639,0.0,0.0,-0.5710057020187378,-1.2775030136108398,0.0,0.0,-0.5643643140792847,0.2039252817630767,0.0,0.0,-1.3663474321365356,-0.04801981523633,0,1,1616,0
92,2,10,3,0.4059831500053406,0.8880830407142639,0.0,0.0,0.149006113409996,0.461048275232315,0.0,0.0,0.142641469836235,2.2770802974700928,0.0,0.0,0.4699431359767914,2.080146312713623,0,1,1243,0
93,2,10,4,0.4059831500053406,0.8880830407142639,0.0,0.0,-0.1314962804317474,-0.9460328221321106,0.0,0.0,-1.1381092071533203,-0.6505191922187805,0.0,0.0,-0.8935409784317017,-1.0397682189941406,0,0,2194,0
94,2,10,5,0.4059831500053406,0.8880830407142639,0.0,0.0,-1.0195598602294922,2.0317163467407227,0.0,0.0,0.1009571030735969,1.4033106565475464,0.0,0.0,1.3904087543487549,1.2872432470321655,0,1,1124,0
95,2,10,6,0.4059831500053406,0.8880830407142639,0.0,0.0,-0.5752426385879517,-1.0658950805664062,0.0,0.0,0.4951064586639404,-1.277581810951233,0.0,0.0,-1.180142164230347,-0.9335938692092896,0,1,1418,0
96,2,10,7,0.4059831500053406,0.8880830407142639,0.0,0.0,-0.48697429895401,-0.5140926837921143,0.0,0.0,-1.3455051183700562,0.7072657346725464,0.0,0.0,-0.6542603373527527,0.0818582773208618,0,0,1420,0
97,2,10,8,0.4059831500053406,0.8880830407142639,0.0,0.0,1.222196102142334,-0.8590030074119568,0.0,0.0,0.3594965636730194,-0.7908005714416504,0.0,0.0,-0.2666749656200409,-0.5563470125198364,0,0,1453,0
98,2,10,9,0.4059831500053406,0.8880830407142639,0.0,0.0,-0.2045470625162124,1.3519738912582395,0.0,0.0,-0.9261724352836608,0.3984259665012359,0.0,0.0,1.1176224946975708,-0.0221750438213348,0,1,1073,0
99,2,10,10,0.4059831500053406,0.8880830407142639,0.0,0.0,0.1735186725854873,-0.4779378473758697,0.0,0.0,1.6279454231262207,0.4355887472629547,0.0,0.0,-0.354002833366394,1.0477573871612549,0,1,1511,0
100,3,11,1,0.228215217590332,0.4287657439708709,0.1986529231071472,0.0,1.6598252058029177,-0.8359289169311523,-0.7704295516014099,0.0,0.752348005771637,-1.4813618659973145,-2.1288349628448486,0.0,-0.1326683908700943,-0.8863592147827148,0,0,933,0
101,3,11,2,0.228215217590332,0.4287657439708709,0.1986529231071472,0.0,2.178769826889038,0.167210504412651,-0.2364583164453506,0.0,0.2068656384944915,0.5252767205238342,2.993277311325073,0.0,0.5219494700431824,0.8670538067817688,0,0,709,0
102,3,11,3,0.228215217590332,0.4287657439708709,0.1986529231071472,0.0,-1.4051426649093628,0.6619117259979248,0.5435081124305725,0.0,-1.2644788026809692,-1.1158969402313232,0.0970183163881301,0.0,0.0710996240377426,-0.747758686542511,0,0,2495,0
103,3,11,4,0.228215217590332,0.4287657439708709,0.1986529231071472,0.0,-3.0609378814697266,0.896025538444519,0.9738292694091796,0.0,-0.93131685256958,0.7190166115760803,-1.3901281356811523,0.0,-0.1209135353565216,-0.1804040074348449,0,1,2047,0
104,3,11,5,0.228215217590332,0.4287657439708709,0.1986529231071472,0.0,0.9977062344551086,0.0719283670186996,-1.1240147352218628,0.0,-1.0042694807052612,2.324087142944336,0.9112903475761414,0.0,0.035243347287178,0.9483298659324646,0,1,1008,0
105,3,11,6,0.228215217590332,0.4287657439708709,0.1986529231071472,0.0,0.1820797026157379,0.3479300737380981,0.5830622911453247,0.0,-0.0967297926545143,-1.5810567140579224,-0.0965262576937675,0.0,0.3065608739852905,-0.7191534042358398,0,0,1041,0
106,3,11,7,0.228215217590332,0.4287657439708709,0.1986529231071472,0.0,-0.6715636253356934,0.2842416763305664,1.5541869401931765,0.0,2.043940305709839,0.4981284141540527,1.9050135612487795,0.0,0.2773558497428894,1.0584752559661863,0,1,1016,0
107,3,11,8,0.228215217590332,0.4287657439708709,0.1986529231071472,0.0,-1.8134468793869016,-0.655669629573822,0.4841813445091247,0.0,0.2577553987503052,-0.8518692851066589,-2.087730407714844,0.0,-0.5988008379936218,-0.7211624383926392,0,0,1563,0
108,3,11,9,0.228215217590332,0.4287657439708709,0.1986529231071472,0.0,-0.3296590447425842,-2.012087345123291,1.270920753479004,0.0,1.5202020406723022,-0.8425647020339966,0.0872920155525207,0.0,-0.68547523021698,0.0030111670494079,0,1,1021,0
109,3,11,10,0.228215217590332,0.4287657439708709,0.1986529231071472,0.0,-0.7520211935043335,-0.758594810962677,-1.1701158285140991,0.0,-0.664038896560669,-0.3839322328567505,-3.1060028076171875,0.0,-0.7293291091918945,-0.9331773519515992,0,1,766,0
110,3,12,1,0.0175577830523252,-0.5128761529922485,-0.9633814692497252,0.0,-0.3580130338668823,-0.7003332376480103,1.1563799381256104,0.0,-1.12297785282135,-0.9698514938354492,1.261916995048523,0.0,-0.7611367106437683,-0.7380107641220093,0,1,1798,0
111,3,12,2,0.0175577830523252,-0.5128761529922485,-0.9633814692497252,0.0,-0.2645031213760376,0.1750568896532058,-0.6600807905197144,0.0,0.5992041230201721,1.5138953924179075,-0.0314634218811988,0.0,0.5414830446243286,-0.7356088757514954,0,0,698,0
112,3,12,3,0.0175577830523252,-0.5128761529922485,-0.9633814692497252,0.0,-0.7511948347091675,-0.7894579172134399,-0.0946833044290542,0.0,1.1454426050186155,0.8073367476463318,-0.8104672431945801,0.0,0.4829209744930267,0.3868367969989776,0,0,1015,0
113,3,12,4,0.0175577830523252,-0.5128761529922485,-0.9633814692497252,0.0,-0.0496168397367,-0.4307411611080169,0.8305208086967468,0.0,-0.6427802443504333,-0.6769230365753174,1.0926600694656372,0.0,-0.5800626873970032,-0.7167565822601318,0,1,912,0
114,3,12,5,0.0175577830523252,-0.5128761529922485,-0.9633814692497252,0.0,-2.286920547485352,0.2868978977203369,-0.6959003806114197,0.0,-0.3237406313419342,-1.3892316818237305,0.1308407932519912,0.0,0.4831212162971496,0.5807700753211975,0,0,664,0
115,3,12,6,0.0175577830523252,-0.5128761529922485,-0.9633814692497252,0.0,1.2124618291854858,0.2144201844930648,0.2849220037460327,0.0,-0.7068704962730408,1.0647861957550049,0.648997962474823,0.0,-0.3631714284420013,-1.183747172355652,0,1,845,0
116,3,12,7,0.0175577830523252,-0.5128761529922485,-0.9633814692497252,0.0,-0.687380313873291,0.4577823877334595,-0.2299763858318328,0.0,-0.4990717470645904,1.975575566291809,-0.1457569599151611,0.0,-0.0252995491027832,-0.8815686106681824,0,0,1608,0
117,3,12,8,0.0175577830523252,-0.5128761529922485,-0.9633814692497252,0.0,-0.3996338248252868,0.410792738199234,-0.2985393404960632,0.0,-1.066523551940918,-0.8421424031257629,0.802818775177002,0.0,0.0699048042297363,-0.3602317869663238,0,0,755,0
118,3,12,9,0.0175577830523252,-0.5128761529922485,-0.9633814692497252,0.0,0.787446916103363,-0.5368694067001343,1.967969536781311,0.0,-0.1696203351020813,-2.074703931808472,0.8083169460296631,0.0,-1.6067320108413696,0.2823704481124878,0,0,971,0
119,3,12,10,0.0175577830523252,-0.5128761529922485,-0.9633814692497252,0.0,0.4116064608097076,0.5369354486465454,-1.2536476850509644,0.0,-0.2607660889625549,0.5426273941993713,0.8333099484443665,0.0,0.9395864009857178,-1.0856744050979614,0,0,1631,0
120,4,13,1,-1.003786325454712,-0.5027295351028442,-0.4019007384777069,-0.6260586380958557,0.6672051548957825,-0.1008075624704361,0.5971672534942627,0.5179789066314697,-0.548550009727478,0.2008378654718399,-0.0942855104804039,-0.4008388519287109,-1.1833395957946775,0.7385019063949585,0,0,1608,0
121,4,13,2,-1.003786325454712,-0.5027295351028442,-0.4019007384777069,-0.6260586380958557,1.165168523788452,-1.766542673110962,-1.8711652755737305,-1.375824213027954,1.538734793663025,0.7119886875152588,0.2470768839120865,-1.1502680778503418,1.3318822383880615,-1.2816636562347412,0,1,728,0
122,4,13,3,-1.003786325454712,-0.5027295351028442,-0.4019007384777069,-0.6260586380958557,0.9763697981834412,-0.2106259316205978,-1.1031368970870972,1.5482486486434937,-1.4693188667297363,-0.5644280314445496,0.3457904756069183,-0.3021941184997558,-1.4001216888427734,1.808854579925537,0,0,1323,0
123,4,13,4,-1.003786325454712,-0.5027295351028442,-0.4019007384777069,-0.6260586380958557,0.7217898964881897,1.069719314575195,0.028242751955986,-2.5521514415740967,1.2104814052581787,-0.6569768190383911,0.4124015569686889,1.4305776357650757,0.3241433799266815,-1.946152925491333,0,0,864,0
124,4,13,5,-1.003786325454712,-0.5027295351028442,-0.4019007384777069,-0.6260586380958557,-0.3341624438762665,0.3449303209781647,1.2645466327667236,0.5502711534500122,1.208391547203064,0.083795852959156,1.3430670499801636,0.7564717531204224,-0.6907031536102295,-2.2684688568115234,0,1,746,0
125,4,13,6,-1.003786325454712,-0.5027295351028442,-0.4019007384777069,-0.6260586380958557,-2.507561445236206,1.2601699829101562,-0.5046260952949524,-1.5063307285308838,-1.2999459505081177,-0.0993063077330589,-0.0978250876069068,2.0132317543029785,3.0293922424316406,0.1337070763111114,0,0,1128,0
126,4,13,7,-1.003786325454712,-0.5027295351028442,-0.4019007384777069,-0.6260586380958557,-1.6194145679473877,-0.2615385055541992,2.034252166748047,1.2119730710983276,-0.0572413243353366,0.7121238112449646,0.8735687732696533,-1.1119123697280884,0.1806955933570861,0.0444868206977844,0,0,683,0
127,4,13,8,-1.003786325454712,-0.5027295351028442,-0.4019007384777069,-0.6260586380958557,-1.6835696697235107,0.6593542098999023,-0.1342998296022415,-0.7319211959838867,0.0256478302180767,0.5803514122962952,-0.4565377831459045,0.0770907402038574,1.8706682920455933,-0.1822851747274398,0,0,564,0
128,4,13,9,-1.003786325454712,-0.5027295351028442,-0.4019007384777069,-0.6260586380958557,0.6953922510147095,-0.5169011950492859,1.1141037940979004,-0.5834376811981201,-1.0400394201278689,0.6482843160629272,1.5415019989013672,-0.8136919736862183,-0.5206567049026489,0.6079537868499756,0,1,680,0
129,4,13,10,-1.003786325454712,-0.5027295351028442,-0.4019007384777069,-0.6260586380958557,-0.0062579130753874,0.2119504064321518,-0.928954780101776,-0.0697552114725112,0.3206963837146759,-0.3600682020187378,1.0802233219146729,-1.1565980911254885,0.3167463541030884,0.149061918258667,0,0,690,0
130,3,14,1,-1.0200979709625244,-0.7265786528587341,-0.9913752675056458,0.0,0.0223732758313417,-0.2114335596561432,-0.4426984190940857,0.0,-0.2100181430578231,0.2693199217319488,0.0276575870811939,0.0,0.5696804523468018,-0.0088620781898498,0,0,1718,0
131,3,14,2,-1.0200979709625244,-0.7265786528587341,-0.9913752675056458,0.0,0.7580165863037109,0.8633722066879272,-0.9806867837905884,0.0,-0.5793888568878174,-0.9333305954933168,0.1271832287311554,0.0,-0.4283303022384643,1.1430851221084597,0,0,602,0
132,3,14,3,-1.0200979709625244,-0.7265786528587341,-0.9913752675056458,0.0,2.741217851638794,-0.5744040012359619,1.0683223009109497,0.0,-0.3178254067897796,-0.6121944189071655,0.0555335395038127,0.0,-3.4380693435668945,0.7139658331871033,0,1,1718,0
133,3,14,4,-1.0200979709625244,-0.7265786528587341,-0.9913752675056458,0.0,3.3766369819641118,0.1134597510099411,-1.817582607269287,0.0,0.2014009207487106,1.4184601306915283,0.1898950040340423,0.0,-1.725031495094299,-1.4243286848068235,0,0,1807,0
134,3,14,5,-1.0200979709625244,-0.7265786528587341,-0.9913752675056458,0.0,-0.0058917528949677,-0.8215629458427429,0.463794082403183,0.0,0.3332736790180206,0.3840413093566894,-0.911485493183136,0.0,0.143146276473999,0.2846161723136902,0,0,695,0
135,3,14,6,-1.0200979709625244,-0.7265786528587341,-0.9913752675056458,0.0,-0.330350250005722,-2.3308422565460205,0.0676213279366493,0.0,-0.4110795259475708,-1.029649257659912,0.4949648976325989,0.0,1.963491678237915,0.6767666339874268,0,0,2356,0
136,3,14,7,-1.0200979709625244,-0.7265786528587341,-0.9913752675056458,0.0,-1.4538503885269165,1.4733994007110596,1.004777193069458,0.0,0.172308012843132,0.4455586075782776,-0.752252459526062,0.0,-0.5835820436477661,0.2462600767612457,0,0,2552,0
137,3,14,8,-1.0200979709625244,-0.7265786528587341,-0.9913752675056458,0.0,-0.5612555742263794,0.2078328281641006,-0.5333238244056702,0.0,1.6314951181411743,0.6874390244483948,0.2133373767137527,0.0,0.950252890586853,-2.375260591506958,0,0,1341,0
138,3,14,9,-1.0200979709625244,-0.7265786528587341,-0.9913752675056458,0.0,0.6122260093688965,0.8898743987083435,1.853447437286377,0.0,-1.289684534072876,-1.8462131023406985,0.3030443489551544,0.0,-3.108556270599365,2.356592893600464,0,1,1361,0
139,3,14,10,-1.0200979709625244,-0.7265786528587341,-0.9913752675056458,0.0,-1.7561191320419312,0.2152269929647445,0.7585462927818298,0.0,0.89730304479599,-1.8206032514572144,0.2537789344787597,0.0,0.8830301761627197,0.1558843255043029,0,0,1042,0
140,2,15,1,-1.1174628734588623,-1.3111469745635986,0.0,0.0,-0.1655609458684921,-0.2076532840728759,0.0,0.0,0.1319970190525055,0.1454318761825561,0.0,0.0,0.4572722017765045,-0.3381843268871307,0,1,1427,0
141,2,15,2,-1.1174628734588623,-1.3111469745635986,0.0,0.0,1.2188814878463743,-1.0814167261123655,0.0,0.0,1.2292258739471436,0.7462427616119385,0.0,0.0,0.0558414421975612,-2.35204815864563,0,0,2260,0
142,2,15,3,-1.1174628734588623,-1.3111469745635986,0.0,0.0,0.2348385006189346,0.2346675544977188,0.0,0.0,0.5165574550628662,-1.2821917533874512,0.0,0.0,-0.5701069831848145,1.1039080619812012,0,1,1041,0
143,2,15,4,-1.1174628734588623,-1.3111469745635986,0.0,0.0,-1.4352859258651731,0.1825913786888122,0.0,0.0,-1.0053893327713013,0.7256039977073669,0.0,0.0,1.3644746541976929,0.1721117198467254,0,0,1832,0
144,2,15,5,-1.1174628734588623,-1.3111469745635986,0.0,0.0,-1.4086296558380127,0.3264627456665039,0.0,0.0,0.9546748399734496,0.8243165612220764,0.0,0.0,1.1460506916046145,-2.147613763809204,0,0,992,0
145,2,15,6,-1.1174628734588623,-1.3111469745635986,0.0,0.0,-0.9894333481788636,1.5899609327316284,0.0,0.0,-0.8684050440788269,0.5215665698051453,0.0,0.0,-0.9790173768997192,0.2865599691867828,0,1,801,0
146,2,15,7,-1.1174628734588623,-1.3111469745635986,0.0,0.0,-0.3387825191020965,-0.1069734320044517,0.0,0.0,1.3341723680496216,0.0862642079591751,0.0,0.0,0.5188347697257996,-1.6039931774139404,0,0,694,0
147,2,15,8,-1.1174628734588623,-1.3111469745635986,0.0,0.0,0.4525891244411468,0.7678698897361755,0.0,0.0,-0.7001923322677612,-1.8702101707458496,0.0,0.0,-1.512541890144348,3.234559297561645,0,1,851,0
148,2,15,9,-1.1174628734588623,-1.3111469745635986,0.0,0.0,-1.5127551555633545,0.1102050021290779,0.0,0.0,-1.653143048286438,-0.3316383063793182,0.0,0.0,1.5459527969360352,2.2821526527404785,0,1,880,0
149,2,15,10,-1.1174628734588623,-1.3111469745635986,0.0,0.0,-1.8117460012435915,-1.319763422012329,0.0,0.0,2.1470649242401123,-0.067583218216896,0.0,0.0,3.75496244430542,-2.310653686523437,0,0,1378,0
0,2,1,1,1.4820560216903689,1.100420355796814,0.0,0.0,-1.504862904548645,0.8989020586013794,0.0,0.0,-1.579160451889038,0.7645248770713806,0.0,0.0,-1.2411210536956787,-1.4991055727005005,1,1,2736,1
1,2,1,2,1.4820560216903689,1.100420355796814,0.0,0.0,-0.4375500679016113,-1.5805548429489136,0.0,0.0,1.3327593803405762,1.144650101661682,0.0,0.0,-2.38774847984314,3.2348203659057617,1,0,2277,1
2,2,1,3,1.4820560216903689,1.100420355796814,0.0,0.0,1.023956537246704,0.0283623337745666,0.0,0.0,0.5197228193283081,0.4723415374755859,0.0,0.0,1.5487715005874634,1.2900325059890747,1,1,1923,1
3,2,1,4,1.4820560216903689,1.100420355796814,0.0,0.0,-0.4740712344646454,-0.6754011511802673,0.0,0.0,-0.6956461668014526,-0.0221750810742378,0.0,0.0,-1.4458253383636477,-1.0553884506225586,1,0,2742,1
4,2,1,5,1.4820560216903689,1.100420355796814,0.0,0.0,1.978268027305603,0.1210151314735412,0.0,0.0,-1.8310585021972656,-0.0715248361229896,0.0,0.0,3.065071582794189,-2.792438745498657,1,0,2753,1
5,2,1,6,1.4820560216903689,1.100420355796814,0.0,0.0,-0.7735515832901001,0.1846161186695099,0.0,0.0,-1.1703357696533203,0.0589809827506542,0.0,0.0,-0.9432914853096008,-1.6695992946624756,1,0,2470,1
6,2,1,7,1.4820560216903689,1.100420355796814,0.0,0.0,0.5529714822769165,-0.7993013858795166,0.0,0.0,1.1432567834854126,-0.2480929791927337,0.0,0.0,-0.0600327961146831,1.4213640689849854,1,1,1881,1
7,2,1,8,1.4820560216903689,1.100420355796814,0.0,0.0,0.449403703212738,-0.3295610845088959,0.0,0.0,0.1185744553804397,-1.2400707006454468,0.0,0.0,0.3033857643604278,-1.188865065574646,1,0,2307,1
8,2,1,9,1.4820560216903689,1.100420355796814,0.0,0.0,0.1386952698230743,-0.1083634793758392,0.0,0.0,0.4773019552230835,-2.07332181930542,0.0,0.0,0.0863087773323059,-1.5741374492645264,1,0,3426,1
9,2,1,10,1.4820560216903689,1.100420355796814,0.0,0.0,-0.1462475657463073,1.420285701751709,0.0,0.0,-1.403865098953247,0.7483651638031006,0.0,0.0,1.3461642265319824,-1.257090449333191,1,0,3270,1
10,4,2,1,-0.7833065390586853,0.0927613824605941,0.7371217012405396,0.1436427533626556,-0.5193706750869751,0.4543643295764923,-0.1240612864494323,1.5970553159713743,-1.838467359542847,1.7445940971374512,0.497916579246521,-0.1638675928115844,0.586931049823761,1.9454011917114256,1,0,3142,1
11,4,2,2,-0.7833065390586853,0.0927613824605941,0.7371217012405396,0.1436427533626556,1.349756121635437,-0.3844667375087738,0.0558918751776218,0.6453048586845398,-0.162186712026596,-0.6657084822654724,1.8591572046279907,-0.3387584984302521,-0.9590440988540648,1.3870548009872437,1,1,2477,1
12,4,2,3,-0.7833065390586853,0.0927613824605941,0.7371217012405396,0.1436427533626556,-1.7246932983398438,-0.1325455456972122,0.5069196820259094,-0.2486708313226699,0.4886826276779175,-0.3051154911518097,0.2733432948589325,-0.6943316459655762,1.676610231399536,-0.3093396723270416,1,0,2273,1
13,4,2,4,-0.7833065390586853,0.0927613824605941,0.7371217012405396,0.1436427533626556,1.7095714807510376,0.8995317220687866,-1.043744683265686,0.6473968625068665,0.8327779173851013,-1.0531470775604248,1.0803557634353638,0.9654470682144164,-1.9320496320724487,0.1850214004516601,1,1,4756,1
14,4,2,5,-0.7833065390586853,0.0927613824605941,0.7371217012405396,0.1436427533626556,1.7121381759643557,-0.605781078338623,-0.9422332048416138,-0.919215440750122,1.602106690406799,0.516735851764679,0.1669203788042068,0.4231176972389221,-2.2239012718200684,-1.0231890678405762,1,1,1751,1
15,4,2,6,-0.7833065390586853,0.0927613824605941,0.7371217012405396,0.1436427533626556,0.6582470536231995,-1.1659681797027588,-0.8827808499336243,-1.6829463243484497,0.1252369433641433,0.8821658492088318,-1.6654300689697266,0.3054539859294891,-1.5162259340286257,-1.2000163793563845,1,1,2053,1
16,4,2,7,-0.7833065390586853,0.0927613824605941,0.7371217012405396,0.1436427533626556,-1.5138875246047974,-0.8837844729423523,-0.7489756941795349,0.7129821181297302,0.7361920475959778,0.0060066618025302,1.308755874633789,1.304842472076416,0.65418541431427,0.5760366916656494,1,1,1149,1
17,4,2,8,-0.7833065390586853,0.0927613824605941,0.7371217012405396,0.1436427533626556,0.2482762932777404,0.6971851587295532,0.3645848631858825,0.5477173328399658,0.0404564328491687,-0.9377685189247132,1.7204927206039429,-1.7881247997283936,0.217614471912384,0.8926829099655151,1,0,2214,1
18,4,2,9,-0.7833065390586853,0.0927613824605941,0.7371217012405396,0.1436427533626556,-0.7952042818069458,-0.5144298076629639,-0.252977579832077,0.6728417873382568,0.5402540564537048,-0.1940736621618271,-1.673529863357544,1.2835161685943604,0.4853430390357971,-1.4904143810272217,1,1,2329,1
19,4,2,10,-0.7833065390586853,0.0927613824605941,0.7371217012405396,0.1436427533626556,0.7463210821151733,-0.3171053230762481,0.3272020816802978,0.3824309110641479,2.210961103439331,1.0099680423736572,-0.3920213282108307,-1.0793811082839966,-0.3178921341896057,-2.0821869373321533,1,1,1725,1
20,2,3,1,0.7039666175842285,1.1063059568405151,0.0,0.0,0.825236439704895,1.4443382024765017,0.0,0.0,-1.6462159156799316,1.7241970300674438,0.0,0.0,2.178818941116333,0.7486083507537842,1,0,3639,1
21,2,3,2,0.7039666175842285,1.1063059568405151,0.0,0.0,0.5784012675285339,-0.6031911373138428,0.0,0.0,0.8529894351959229,0.3308964967727661,0.0,0.0,-0.2601387798786163,0.9665488600730896,1,1,1981,1
22,2,3,3,0.7039666175842285,1.1063059568405151,0.0,0.0,1.675972819328308,0.1949082016944885,0.0,0.0,0.7775837182998657,-1.0747474431991575,0.0,0.0,1.3954570293426514,-0.6416065096855164,1,0,2648,1
23,2,3,4,0.7039666175842285,1.1063059568405151,0.0,0.0,0.5631600618362427,0.8590420484542847,0.0,0.0,0.9679903984069824,0.1334154307842254,0.0,0.0,1.346809148788452,0.8290311694145203,1,1,1792,1
24,2,3,5,0.7039666175842285,1.1063059568405151,0.0,0.0,0.8326618671417236,0.7148951888084412,0.0,0.0,-0.6237829923629761,0.0201938841491937,0.0,0.0,1.377058982849121,-0.4167817831039428,1,0,1496,1
25,2,3,6,0.7039666175842285,1.1063059568405151,0.0,0.0,0.0634942054748535,-0.997917115688324,0.0,0.0,1.3077489137649536,3.573549747467041,0.0,0.0,-1.059303879737854,4.874051094055176,1,1,1531,1
26,2,3,7,0.7039666175842285,1.1063059568405151,0.0,0.0,-0.476782888174057,0.9180124402046204,0.0,0.0,0.208724096417427,0.8588593006134033,0.0,0.0,0.6799634099006653,1.097095966339111,1,1,2664,1
27,2,3,8,0.7039666175842285,1.1063059568405151,0.0,0.0,0.2775931656360626,-2.131181240081787,0.0,0.0,0.004401403479278,0.4189272224903106,0.0,0.0,-2.1623222827911377,0.4665601253509521,1,1,2005,1
28,2,3,9,0.7039666175842285,1.1063059568405151,0.0,0.0,1.5376514196395874,-0.131697192788124,0.0,0.0,0.4401141703128814,-0.2988023459911346,0.0,0.0,0.9367579221725464,-0.0207411348819732,1,0,4434,1
29,2,3,10,0.7039666175842285,1.1063059568405151,0.0,0.0,-0.233202576637268,-0.2367517948150634,0.0,0.0,-0.6415243148803711,-0.8264454007148743,0.0,0.0,-0.4260867238044739,-1.365913152694702,1,0,2112,1
30,3,4,1,0.9375261664390564,0.0280742682516574,-0.5983826518058777,0.0,-0.2010426372289657,0.417678028345108,-0.7418783903121948,0.0,-0.3243948221206665,0.7900450229644775,-2.4539496898651123,0.0,0.2671704292297363,1.1864522695541382,1,0,3600,1
31,3,4,2,0.9375261664390564,0.0280742682516574,-0.5983826518058777,0.0,-0.0439582504332065,0.1046844869852066,-1.4865617752075195,0.0,1.1970975399017334,-0.0419058576226234,0.4937891364097595,0.0,0.851259708404541,0.825658917427063,1,0,1278,1
32,3,4,3,0.9375261664390564,0.0280742682516574,-0.5983826518058777,0.0,0.1909887492656707,-0.859167754650116,1.059853434562683,0.0,0.3842337727546692,0.5445345640182495,0.0864136293530464,0.0,-0.4792614579200744,0.3238081932067871,1,1,2487,1
33,3,4,4,0.9375261664390564,0.0280742682516574,-0.5983826518058777,0.0,-1.174993634223938,1.740923523902893,0.5055614113807678,0.0,1.3145334720611572,-0.956917643547058,0.5114680528640747,0.0,-1.3552312850952148,0.8994910717010498,1,1,2253,1
34,3,4,5,0.9375261664390564,0.0280742682516574,-0.5983826518058777,0.0,0.3559321761131286,-1.1086041927337646,0.9514061212539672,0.0,-0.8610726594924927,-0.92375385761261,1.4620741605758667,0.0,-0.2667324542999267,-1.7080917358398438,1,0,4803,1
35,3,4,6,0.9375261664390564,0.0280742682516574,-0.5983826518058777,0.0,0.6348806023597717,0.0101843373849987,-0.2732405662536621,0.0,0.7787018418312073,0.7064474821090698,0.6538102626800537,0.0,0.7590054869651794,0.3586576282978058,1,0,5225,1
36,3,4,7,0.9375261664390564,0.0280742682516574,-0.5983826518058777,0.0,-0.1751813441514969,0.493960976600647,-0.5992795825004578,0.0,0.179086372256279,-0.5230266451835632,-0.7079178690910339,0.0,0.2082289904356002,0.5768203735351562,1,1,3189,1
37,3,4,8,0.9375261664390564,0.0280742682516574,-0.5983826518058777,0.0,0.028936717659235,1.3308234214782717,0.0111642116680741,0.0,0.1657380610704422,-1.226679444313049,-0.3746396005153656,0.0,0.0578103549778461,0.3451234698295593,1,1,3637,1
38,3,4,9,0.9375261664390564,0.0280742682516574,-0.5983826518058777,0.0,-0.2849607169628143,-0.5267606377601624,-1.019352674484253,0.0,0.0063684796914458,0.52568119764328,1.615031123161316,0.0,0.3280164301395416,-0.9456778764724731,1,0,5347,1
39,3,4,10,0.9375261664390564,0.0280742682516574,-0.5983826518058777,0.0,1.4040793180465698,1.0529553890228271,-0.9330055713653564,0.0,-0.0992345213890075,0.6088072061538696,0.3439554572105407,0.0,1.904216289520264,-0.2817601263523102,1,0,3024,1
40,3,5,1,1.0115668773651123,0.2555974721908569,0.5589665770530701,0.0,0.6463677287101746,0.7537962198257446,-1.357050538063049,0.0,-0.7864286303520203,-0.1392642706632614,0.2133037149906158,0.0,0.0879667401313781,-0.7118910551071167,1,1,3116,1
41,3,5,2,1.0115668773651123,0.2555974721908569,0.5589665770530701,0.0,0.5661221146583557,1.754495620727539,-1.7751799821853638,0.0,-0.0317212454974651,-1.238779902458191,-0.4459370076656341,0.0,0.0288487672805786,-0.5979810953140259,1,0,1346,1
42,3,5,3,1.0115668773651123,0.2555974721908569,0.5589665770530701,0.0,0.4895128607749939,1.1368250846862793,-0.2515007257461548,0.0,0.0528400018811225,1.9949995279312132,-0.8441160321235657,0.0,0.6451641321182251,0.0915353596210479,1,0,2576,1
43,3,5,4,1.0115668773651123,0.2555974721908569,0.5589665770530701,0.0,-0.2949574291706085,-0.3821724951267242,0.4087290465831756,0.0,-0.770440936088562,-0.0649907439947128,0.272025465965271,0.0,-0.1675856262445449,-0.6439108848571777,1,1,5392,1
44,3,5,5,1.0115668773651123,0.2555974721908569,0.5589665770530701,0.0,1.783633589744568,0.2052424997091293,-0.7398533821105957,0.0,1.6629672050476074,1.5923216342926023,0.3333793878555298,0.0,1.4431707859039309,2.2755439281463623,1,1,1598,1
45,3,5,6,1.0115668773651123,0.2555974721908569,0.5589665770530701,0.0,-0.8215789794921875,-1.4468133449554443,2.2462100982666016,0.0,0.4130319058895111,0.1519137471914291,-0.1772222071886062,0.0,0.054672360420227,0.3575768768787384,1,1,3569,1
46,3,5,7,1.0115668773651123,0.2555974721908569,0.5589665770530701,0.0,1.2328004837036133,1.5849895477294922,-0.2166727185249328,0.0,0.7444385886192322,-0.5347824692726135,1.7656707763671875,0.0,1.531066656112671,1.60331130027771,1,0,4173,1
47,3,5,8,1.0115668773651123,0.2555974721908569,0.5589665770530701,0.0,-0.6126471161842346,0.7478208541870117,0.95070219039917,0.0,-0.38100266456604,-0.7307394742965698,-0.6683249473571777,0.0,0.1028183698654174,-0.945756196975708,1,0,1967,1
48,3,5,9,1.0115668773651123,0.2555974721908569,0.5589665770530701,0.0,0.2688338458538055,0.1348360478878021,-0.879380464553833,0.0,0.2527344822883606,-0.2914528250694275,-2.0029516220092773,0.0,-0.1851370930671692,-0.9384198188781738,1,0,2430,1
49,3,5,10,1.0115668773651123,0.2555974721908569,0.5589665770530701,0.0,-0.1493645757436752,1.1221911907196045,0.031778484582901,0.0,0.3166219294071197,0.4680633544921875,0.4625079333782196,0.0,0.1535000801086425,0.69844651222229,1,1,2322,1
50,3,6,1,3.382819414138794,-0.2996323704719543,-1.0387823581695557,0.0,-0.5999807119369507,0.4565113186836242,0.4495751857757568,0.0,0.9134846925735474,0.2077595293521881,0.3390388488769531,0.0,-2.633422613143921,2.675714492797852,1,1,1741,1
51,3,6,2,3.382819414138794,-0.2996323704719543,-1.0387823581695557,0.0,0.4949606955051422,-0.3966220915317535,0.7372828125953674,0.0,-1.049317479133606,-2.6894493103027344,-0.4841322302818298,0.0,1.027327060699463,-2.2408976554870605,1,0,981,1
52,3,6,3,3.382819414138794,-0.2996323704719543,-1.0387823581695557,0.0,0.5264442563056946,1.3250718116760254,0.3160702288150787,0.0,0.322640597820282,1.8347280025482176,-1.5527387857437134,0.0,1.0555033683776855,2.154648780822754,1,0,1464,1
53,3,6,4,3.382819414138794,-0.2996323704719543,-1.0387823581695557,0.0,0.093595765531063,-1.0454692840576172,0.1272103637456894,0.0,0.3154466152191162,0.6052402853965759,0.8755798935890198,0.0,0.4977301061153412,-0.0237875580787658,1,1,3912,1
54,3,6,5,3.382819414138794,-0.2996323704719543,-1.0387823581695557,0.0,0.3297815322875976,0.8315160870552063,-0.1140504032373428,0.0,1.7403564453125,-1.029367208480835,-0.2335266172885894,0.0,0.9849157929420472,6.438326358795166,1,1,2513,1
55,3,6,6,3.382819414138794,-0.2996323704719543,-1.0387823581695557,0.0,0.441103845834732,2.2847516536712646,0.4004501700401306,0.0,-0.9807949662208556,-1.1041271686553955,0.4317376911640167,0.0,0.3916084766387939,-3.4355015754699707,1,0,4068,1
56,3,6,7,3.382819414138794,-0.2996323704719543,-1.0387823581695557,0.0,-0.0148511519655585,-0.9084660410881042,0.991915762424469,0.0,0.4110916256904602,0.6316861510276794,0.8735856413841248,0.0,-0.8084174394607544,0.2939097881317138,1,1,4498,1
57,3,6,8,3.382819414138794,-0.2996323704719543,-1.0387823581695557,0.0,0.5328570008277893,1.1084692478179932,-0.6263099908828735,0.0,-0.6226728558540344,-0.4794960618019104,-1.4400696754455566,0.0,2.121025562286377,-0.466798186302185,1,0,2971,1
58,3,6,9,3.382819414138794,-0.2996323704719543,-1.0387823581695557,0.0,-0.3636811971664428,-0.7032303214073181,-0.8407810926437378,0.0,0.2115659862756729,1.794772982597351,-1.2206499576568604,0.0,-0.1461685895919799,1.4459071159362793,1,1,2904,1
59,3,6,10,3.382819414138794,-0.2996323704719543,-1.0387823581695557,0.0,0.0095712654292583,-0.2654334306716919,1.321624517440796,0.0,-0.0754842385649681,-1.87708580493927,-1.0896459817886353,0.0,-1.2609699964523315,1.4389911890029907,1,1,2280,1
60,3,7,1,-1.230926513671875,-1.6224937438964844,-0.8735226988792419,0.0,1.618680477142334,0.5573460459709167,-0.2874032258987427,0.0,0.968271017074585,1.4031319618225098,1.0150176286697388,0.0,-2.645713806152344,-4.355084419250488,1,0,2013,1
61,3,7,2,-1.230926513671875,-1.6224937438964844,-0.8735226988792419,0.0,0.4959714412689209,0.8848766684532166,1.3463853597640991,0.0,0.9194722175598145,-1.1186628341674805,0.5514032244682312,0.0,-3.2223095893859863,0.2015575170516967,1,1,2070,1
62,3,7,3,-1.230926513671875,-1.6224937438964844,-0.8735226988792419,0.0,0.0330756306648254,0.9755846858024596,-0.2361288517713546,0.0,-1.1448521614074707,0.5088610649108887,0.9971483945846558,0.0,-1.4173297882080078,-0.2874267101287842,1,0,1588,1
63,3,7,4,-1.230926513671875,-1.6224937438964844,-0.8735226988792419,0.0,-0.6346858739852905,0.8639746308326721,2.8914577960968018,0.0,-0.92809396982193,0.7088392376899719,0.5928571820259094,0.0,-3.1462957859039307,-0.5255458950996399,1,0,3232,1
64,3,7,5,-1.230926513671875,-1.6224937438964844,-0.8735226988792419,0.0,0.8842291235923767,-1.2445038557052612,-0.2686511278152466,0.0,-1.600284218788147,-0.1627660989761352,-1.683352828025818,0.0,1.1654515266418457,3.7043662071228023,1,0,1679,1
65,3,7,6,-1.230926513671875,-1.6224937438964844,-0.8735226988792419,0.0,1.5976965427398682,0.0810446366667747,0.2506445944309234,0.0,1.035015106201172,-1.304558515548706,0.4658969044685364,0.0,-2.317085266113281,0.4356389045715332,1,1,1054,1
66,3,7,7,-1.230926513671875,-1.6224937438964844,-0.8735226988792419,0.0,-0.0247889552265405,0.2789744734764099,0.4008354842662811,0.0,0.378739058971405,-1.23745596408844,-0.5356176495552063,0.0,-0.7722598314285278,2.009438753128052,1,1,1859,1
67,3,7,8,-1.230926513671875,-1.6224937438964844,-0.8735226988792419,0.0,1.6030588150024414,-1.5044569969177246,2.1966519355773926,0.0,-1.5516051054000854,2.0551931858062744,0.1040274277329444,0.0,-1.4511008262634275,-1.5154964923858645,1,0,1487,1
68,3,7,9,-1.230926513671875,-1.6224937438964844,-0.8735226988792419,0.0,1.169642210006714,-0.5931868553161621,-0.6079713106155396,0.0,-0.5289833545684814,0.4565649032592773,-0.2822089791297912,0.0,0.0537750720977783,0.1568818688392639,1,0,5413,1
69,3,7,10,-1.230926513671875,-1.6224937438964844,-0.8735226988792419,0.0,-1.4849445819854736,-1.503223896026611,0.7442591786384583,0.0,0.4779544770717621,0.1968970894813537,-1.1748937368392944,0.0,3.616701602935791,0.1185052394866943,1,1,1891,1
70,4,8,1,0.091305024921894,0.859833300113678,-1.291062355041504,-0.7277839779853821,0.7135236859321594,0.0666940808296203,-1.2518244981765747,-0.1467036306858062,-0.1299643218517303,0.7942171692848206,1.169219732284546,-0.5768352746963501,1.8454461097717283,-0.4186961650848388,1,0,3887,1
71,4,8,2,0.091305024921894,0.859833300113678,-1.291062355041504,-0.7277839779853821,-0.8030322194099426,1.043778657913208,0.4952101707458496,-0.1459570825099945,0.3663580119609833,-0.933727204799652,1.0114597082138062,-0.4921595752239227,0.2910328507423401,-1.7170710563659668,1,1,2512,1
72,4,8,3,0.091305024921894,0.859833300113678,-1.291062355041504,-0.7277839779853821,0.3590719103813171,-1.0101466178894043,-0.2353148758411407,-1.3639408349990845,0.5698084831237793,1.4868040084838867,0.4014482796192169,0.907278060913086,0.4606878161430359,0.1518328189849853,1,0,1403,1
73,4,8,4,0.091305024921894,0.859833300113678,-1.291062355041504,-0.7277839779853821,-0.174807995557785,1.157260537147522,0.1206331178545951,-0.0106194047257304,0.6618145108222961,-2.481182098388672,1.0998756885528564,0.5760860443115234,0.8310739994049072,-3.912250518798828,1,1,3445,1
74,4,8,5,0.091305024921894,0.859833300113678,-1.291062355041504,-0.7277839779853821,-0.5407568216323853,-0.8182675242424011,-0.8972185254096985,0.7998517751693726,-0.0529738217592239,0.0196447484195232,1.2779691219329834,0.0463288910686969,-0.1767017841339111,-1.6716008186340332,1,1,4517,1
75,4,8,6,0.091305024921894,0.859833300113678,-1.291062355041504,-0.7277839779853821,0.8958927392959595,0.0672847926616668,-0.7363134026527405,1.4790098667144775,0.3963536620140075,-1.3953840732574463,1.3706958293914795,0.0645506009459495,0.0138800144195556,-2.980241298675537,1,0,774,1
76,4,8,7,0.091305024921894,0.859833300113678,-1.291062355041504,-0.7277839779853821,-1.3389432430267334,1.2087912559509275,0.2081169039011001,1.0332579612731934,-1.8431308269500728,0.2390987277030944,0.1329366713762283,1.018397569656372,-0.103573739528656,-0.8755050897598267,1,0,2719,1
77,4,8,8,0.091305024921894,0.859833300113678,-1.291062355041504,-0.7277839779853821,0.3021554350852966,-0.3510591089725494,1.0519737005233765,0.3281356990337372,-0.753029465675354,0.3933536112308502,-0.7556189894676208,0.8150168061256409,-1.8712395429611208,0.6518582105636597,1,0,2299,1
78,4,8,9,0.091305024921894,0.859833300113678,-1.291062355041504,-0.7277839779853821,-0.6755105257034302,1.2194193601608276,0.7730811834335327,0.7524203062057495,1.7447453737258911,-0.0098716309294104,-0.2767262458801269,0.1452463269233703,-0.5588756203651428,0.4023789465427398,1,1,1754,1
79,4,8,10,0.091305024921894,0.859833300113678,-1.291062355041504,-0.7277839779853821,0.2783432304859161,-1.2811813354492188,0.0839179530739784,-1.0387332439422607,0.4702082276344299,0.5650055408477783,1.110865354537964,0.6598806977272034,-0.428558200597763,-1.3857041597366333,1,1,2603,1
80,3,9,1,-0.3692634403705597,1.2879650592803955,0.5678817629814148,0.0,-1.5142821073532104,-1.1713818311691284,-1.144184708595276,0.0,1.0751153230667114,1.3903295993804932,-0.7757598161697388,0.0,-1.5992915630340576,0.953155279159546,1,1,4191,1
81,3,9,2,-0.3692634403705597,1.2879650592803955,0.5678817629814148,0.0,-0.0557388626039028,-0.7794301509857178,-0.3544561564922333,0.0,-0.4028219878673553,-0.1767230033874511,1.1159709692001345,0.0,-1.184585690498352,0.5548739433288574,1,1,4649,1
82,3,9,3,-0.3692634403705597,1.2879650592803955,0.5678817629814148,0.0,-0.8951327800750732,-0.192737266421318,0.9174680709838868,0.0,-1.4458597898483276,0.7012289762496948,1.6429318189620972,0.0,0.6033143401145935,2.3700525760650635,1,1,1328,1
83,3,9,4,-0.3692634403705597,1.2879650592803955,0.5678817629814148,0.0,-0.7674368023872375,-0.6854223608970642,0.6332359313964844,0.0,0.9095295667648317,0.4481912851333618,1.7441537380218506,0.0,-0.2398105561733245,1.2318718433380127,1,1,1932,1
84,3,9,5,-0.3692634403705597,1.2879650592803955,0.5678817629814148,0.0,-0.0017476603388786,0.9102101922035216,0.0837700963020324,0.0,-0.8140509128570557,-1.095239281654358,0.5495309829711914,0.0,1.2205357551574707,-0.7979620695114136,1,0,5387,1
85,3,9,6,-0.3692634403705597,1.2879650592803955,0.5678817629814148,0.0,-1.245263695716858,-0.5222784280776978,0.6809679269790649,0.0,-1.846071720123291,-1.8124490976333616,-1.1918294429779053,0.0,0.1738632470369339,-2.329502582550049,1,0,4565,1
86,3,9,7,-0.3692634403705597,1.2879650592803955,0.5678817629814148,0.0,-0.1630970388650894,0.530876636505127,1.6070600748062134,0.0,0.9954106211662292,1.1111541986465454,0.3694289922714233,0.0,1.6565964221954346,1.2733510732650757,1,1,2323,1
87,3,9,8,-0.3692634403705597,1.2879650592803955,0.5678817629814148,0.0,0.0173969808965921,-0.404422402381897,-3.924283981323242,0.0,-1.998548984527588,0.9454339146614076,1.6374651193618774,0.0,-2.7558352947235107,2.885563373565674,1,0,3703,1
88,3,9,9,-0.3692634403705597,1.2879650592803955,0.5678817629814148,0.0,0.4178884327411651,0.0453554540872573,-0.1702798157930374,0.0,-0.3276022970676422,0.6418424248695374,0.3204955160617828,0.0,-0.1925934851169586,1.1296457052230835,1,1,2231,1
89,3,9,10,-0.3692634403705597,1.2879650592803955,0.5678817629814148,0.0,-0.2998877763748169,0.1887393295764923,1.8291529417037964,0.0,0.0370398238301277,0.0324134305119514,0.743440568447113,0.0,1.3925697803497314,0.4502562582492828,1,0,3961,1
90,2,10,1,0.8656009435653687,0.0071815899573266,0.0,0.0,-0.2637679576873779,-1.0513110160827637,0.0,0.0,-0.5908915996551514,1.2336866855621338,0.0,0.0,-0.2358678877353668,-0.5026165246963501,1,0,3286,1
91,2,10,2,0.8656009435653687,0.0071815899573266,0.0,0.0,-1.8238409757614136,2.02051305770874,0.0,0.0,-0.4901324510574341,-0.0082464627921581,0.0,0.0,-1.564207911491394,-0.4243183434009552,1,1,2926,1
92,2,10,3,0.8656009435653687,0.0071815899573266,0.0,0.0,-1.4408962726593018,0.9586920142173768,0.0,0.0,1.6603450775146484,0.8088904619216919,0.0,0.0,-1.240356206893921,1.4430053234100342,1,1,2283,1
93,2,10,4,0.8656009435653687,0.0071815899573266,0.0,0.0,-0.621802031993866,-0.3726719617843628,0.0,0.0,-0.6624748110771179,0.5519770383834839,0.0,0.0,-0.5409088134765625,-0.5694747567176819,1,0,4472,1
94,2,10,5,0.8656009435653687,0.0071815899573266,0.0,0.0,0.5256814956665039,1.8828378915786743,0.0,0.0,-1.081000566482544,0.483398824930191,0.0,0.0,0.4685521721839905,-0.932243585586548,1,1,1941,1
95,2,10,6,0.8656009435653687,0.0071815899573266,0.0,0.0,-0.185757428407669,-0.768733024597168,0.0,0.0,-1.996712684631348,0.947526514530182,0.0,0.0,-0.1663125306367874,-1.7215516567230225,1,0,3366,1
96,2,10,7,0.8656009435653687,0.0071815899573266,0.0,0.0,-2.0294971466064453,-1.086307406425476,0.0,0.0,-0.4769449532032013,-0.2016124129295349,0.0,0.0,-1.7645360231399536,-0.4142918884754181,1,1,4954,1
97,2,10,8,0.8656009435653687,0.0071815899573266,0.0,0.0,-1.218384861946106,0.1660299152135849,0.0,0.0,-1.339562177658081,-1.2170554399490356,0.0,0.0,-1.0534427165985107,-1.1682666540145874,1,1,1782,1
98,2,10,9,0.8656009435653687,0.0071815899573266,0.0,0.0,0.8712192177772522,0.1394859999418258,0.0,0.0,0.5136038661003113,1.012192964553833,0.0,0.0,0.755129873752594,0.4518451392650604,1,0,2848,1
99,2,10,10,0.8656009435653687,0.0071815899573266,0.0,0.0,-1.170363426208496,-0.6750264763832092,0.0,0.0,0.2011341601610183,0.0802337005734443,0.0,0.0,-1.0179154872894287,0.1746781170368194,1,1,3584,1
100,4,11,1,-0.3034687042236328,0.4636765420436859,1.4000592231750488,0.6350299715995789,0.3603539764881134,0.7433143854141235,-0.6039918065071106,-0.5331831574440002,0.1692324429750442,0.8330910205841064,2.184994697570801,1.405623435974121,-0.948910355567932,4.286663055419922,1,0,2712,1
101,4,11,2,-0.3034687042236328,0.4636765420436859,1.4000592231750488,0.6350299715995789,-0.6803107261657715,1.6727232933044434,0.6921464204788208,0.2466996610164642,-1.3861533403396606,-0.7809638381004333,-1.900248408317566,-1.3025405406951904,2.107763290405273,-3.4290730953216557,1,0,1541,1
102,4,11,3,-0.3034687042236328,0.4636765420436859,1.4000592231750488,0.6350299715995789,-0.507383406162262,1.2426992654800415,-1.259445071220398,0.0246719792485237,-1.4912469387054443,-0.4359537661075592,-0.3452263176441192,0.9139040112495422,-1.0174448490142822,0.3474243879318237,1,1,3867,1
103,4,11,4,-0.3034687042236328,0.4636765420436859,1.4000592231750488,0.6350299715995789,0.696003258228302,-1.9723674058914185,-0.3463711440563202,-0.2500553131103515,0.5239295959472656,-1.241309642791748,-0.6870009303092957,-0.1573524624109268,-1.7694883346557615,-1.7963279485702517,1,0,3794,1
104,4,11,5,-0.3034687042236328,0.4636765420436859,1.4000592231750488,0.6350299715995789,-0.781842052936554,1.378783941268921,-0.7904018759727478,1.951379656791687,0.5235674381256104,2.162450075149536,1.3903816938400269,-1.341647744178772,1.009149432182312,1.9384212493896484,1,0,2138,1
105,4,11,6,-0.3034687042236328,0.4636765420436859,1.4000592231750488,0.6350299715995789,0.4882970750331878,-1.4652777910232544,-0.6229025721549988,-0.3860273063182831,-0.3543306887149811,0.2430552095174789,1.7137142419815063,0.2396287620067596,-1.944837212562561,2.771700382232666,1,1,1740,1
106,4,11,7,-0.3034687042236328,0.4636765420436859,1.4000592231750488,0.6350299715995789,-0.7623554468154907,0.6407297253608704,-0.3600468933582306,-0.4287072420120239,0.0574774630367755,-0.3646357655525207,0.6780027151107788,0.8524422645568848,-0.2478865385055542,1.3040547370910645,1,1,1910,1
107,4,11,8,-0.3034687042236328,0.4636765420436859,1.4000592231750488,0.6350299715995789,1.7810661792755127,-1.5422313213348389,-0.2791669964790344,-0.6140784621238708,-0.2204018831253051,-0.6108617186546326,-1.893245816230774,0.3587425351142883,-2.036402940750122,-2.639201164245605,1,0,3897,1
